timestamp_ns,joint_1_pos,joint_2_pos,joint_3_pos,joint_4_pos,joint_5_pos,joint_6_pos,joint_1_temp,joint_2_temp,joint_3_temp,joint_4_temp,joint_5_temp,joint_6_temp,bus_voltage,bus_current,accel_x,accel_y,accel_z,timestamp_ns
1777834800047339097,275.08770751953125,175.3435516357422,78.51639556884766,243.10440063476562,85.92996978759766,74.1781234741211,25.0,24.200000762939453,25.729999542236328,24.200000762939453,24.440000534057617,25.399999618530273,23.804269790649414,0.0,-0.1607036590576172,0.01605590060353279,-1.1433417797088623,1777834799860717080
1777834800146422710,23.804269790649414,0.0,-0.1590406894683838,0.015738407149910927,-1.1465811729431152,25.0,25.0,24.200000762939453,25.729999542236328,24.200000762939453,24.360000610351562,25.399999618530273,23.804269790649414,0.0,-0.1602228432893753,0.012627442367374897,-1.143540859222412,1777834800060802147
1777834800247340237,23.804269790649414,0.0,-0.1590406894683838,0.015738407149910927,-1.1465811729431152,25.0,25.0,24.200000762939453,25.729999542236328,24.200000762939453,24.360000610351562,25.399999618530273,23.804269790649414,0.0,-0.1602228432893753,0.012627442367374897,-1.143540859222412,1777834800060802147
1777834800347355872,275.08770751953125,175.3435516357422,78.51639556884766,243.10440063476562,85.92996978759766,74.1781234741211,25.0,24.280000686645508,25.809999465942383,24.280000686645508,24.440000534057617,25.31999969482422,23.804269790649414,0.0,-0.15872438251972198,0.012009143829345703,-1.1437034606933594,1777834800278488539
1777834800447367433,275.08770751953125,175.3435516357422,78.51639556884766,243.10440063476562,85.92996978759766,74.1781234741211,25.0,24.280000686645508,25.809999465942383,24.280000686645508,24.440000534057617,25.31999969482422,23.804269790649414,0.0,-0.15872438251972198,0.012009143829345703,-1.1437034606933594,1777834800278488539
1777834800547344679,275.08770751953125,175.3435516357422,78.51639556884766,243.10440063476562,85.92996978759766,74.1781234741211,25.0,24.280000686645508,25.809999465942383,24.280000686645508,24.440000534057617,25.31999969482422,23.804269790649414,0.0,-0.15872438251972198,0.012009143829345703,-1.1437034606933594,1777834800490241020
1777834800647358722,275.08770751953125,175.3435516357422,78.51639556884766,243.10440063476562,85.92996978759766,74.1781234741211,25.0,24.280000686645508,25.809999465942383,24.200000762939453,24.440000534057617,25.489999771118164,23.804269790649414,0.0,-0.15880544483661652,0.013907352462410927,-1.1425304412841797,1777834800490241020
1777834800747359264,275.08770751953125,175.3435516357422,78.51639556884766,243.10440063476562,85.92996978759766,74.1781234741211,25.0,24.280000686645508,25.809999465942383,24.200000762939453,24.440000534057617,25.489999771118164,23.804269790649414,0.0,-0.15880544483661652,0.013907352462410927,-1.1425304412841797,1777834800490241020
1777834800847368825,275.08770751953125,175.3435516357422,78.51639556884766,243.10440063476562,85.92996978759766,74.1781234741211,25.079999923706055,24.280000686645508,25.729999542236328,24.200000762939453,24.360000610351562,25.31999969482422,23.804269790649414,0.0,-0.16068020462989807,0.013598998077213764,-1.142286777496338,1777834800759428847
1777834800947370257,275.08770751953125,175.3435516357422,78.51639556884766,243.10440063476562,85.92996978759766,74.1781234741211,25.079999923706055,24.280000686645508,25.729999542236328,24.200000762939453,24.360000610351562,25.31999969482422,23.804269790649414,0.0,-0.16068020462989807,0.013598998077213764,-1.142286777496338,1777834800759428847
1777834801047380151,275.08770751953125,175.3435516357422,78.51639556884766,243.10440063476562,85.92996978759766,74.1781234741211,74.1781234741211,0.0,0.0,0.0,0.0,0.0,275.08770751953125,175.3435516357422,78.51639556884766,243.10440063476562,85.92996978759766,1777834800759428847
1777834801147379230,23.804269790649414,0.0,-0.1602693349123001,0.011245409026741982,-1.1434749364852905,25.079999923706055,25.0,24.280000686645508,25.729999542236328,24.1200008392334,24.360000610351562,25.399999618530273,23.804269790649414,0.0,-0.15915830433368683,0.016033649444580078,-1.1422280073165894,1777834801061147166
1777834801247372958,23.804269790649414,0.0,-0.1602693349123001,0.011245409026741982,-1.1434749364852905,25.079999923706055,25.0,24.280000686645508,25.729999542236328,24.1200008392334,24.360000610351562,25.399999618530273,23.804269790649414,0.0,-0.15915830433368683,0.016033649444580078,-1.1422280073165894,1777834801061147166
1777834801347365908,275.08770751953125,175.3435516357422,78.51639556884766,243.10440063476562,85.92996978759766,74.1781234741211,25.0,24.280000686645508,25.729999542236328,24.1200008392334,24.360000610351562,25.399999618530273,23.804269790649414,0.0,-0.15915830433368683,0.016033649444580078,-1.1422280073165894,1777834801330505918
1777834801447373932,275.08770751953125,175.3435516357422,78.51639556884766,243.10440063476562,85.92996978759766,74.1781234741211,25.0,24.200000762939453,25.729999542236328,24.200000762939453,24.440000534057617,25.399999618530273,23.804269790649414,0.0,-0.15960732102394104,0.014459291473031044,-1.144432544708252,1777834801330505918
1777834801547373863,275.08770751953125,175.3435516357422,78.51639556884766,243.10440063476562,85.92996978759766,74.1781234741211,25.0,24.200000762939453,25.729999542236328,24.200000762939453,24.440000534057617,25.399999618530273,23.804269790649414,0.0,-0.15960732102394104,0.014459291473031044,-1.144432544708252,1777834801330505918
1777834801647370368,275.08770751953125,175.3435516357422,78.51639556884766,243.10440063476562,85.92996978759766,74.1781234741211,74.1781234741211,0.0,0.0,0.0,0.0,0.0,275.08770751953125,175.3435516357422,78.51639556884766,243.10440063476562,85.92996978759766,1777834801330505918
1777834801746494093,23.804269790649414,0.0,-0.16054749488830566,0.014388561248779297,-1.143829345703125,24.920000076293945,25.0,24.280000686645508,25.729999542236328,24.1200008392334,24.440000534057617,25.399999618530273,23.804269790649414,0.0,-0.15999753773212433,0.014539957046508789,-1.1434674263000488,1777834801661414366
1777834801847370416,23.804269790649414,0.0,-0.16054749488830566,0.014388561248779297,-1.143829345703125,24.920000076293945,25.0,24.280000686645508,25.729999542236328,24.1200008392334,24.440000534057617,25.399999618530273,23.804269790649414,0.0,-0.15999753773212433,0.014539957046508789,-1.1434674263000488,1777834801661414366
1777834801947384700,275.08770751953125,175.3435516357422,78.51639556884766,243.10440063476562,85.92996978759766,74.1781234741211,25.0,24.280000686645508,25.729999542236328,24.1200008392334,24.440000534057617,25.399999618530273,23.804269790649414,0.0,-0.15999753773212433,0.014539957046508789,-1.1434674263000488,1777834801907071400
1777834802047402446,275.08770751953125,175.3435516357422,78.51639556884766,243.10440063476562,85.92996978759766,74.1781234741211,25.079999923706055,24.200000762939453,25.729999542236328,24.200000762939453,24.440000534057617,25.31999969482422,23.804269790649414,0.0,-0.15914559364318848,0.011444886215031147,-1.1436588764190674,1777834801907071400
1777834802147378303,275.08770751953125,175.3435516357422,78.51639556884766,243.10440063476562,85.92996978759766,74.1781234741211,25.079999923706055,24.200000762939453,25.729999542236328,24.200000762939453,24.440000534057617,25.31999969482422,23.804269790649414,0.0,-0.15914559364318848,0.011444886215031147,-1.1436588764190674,1777834801907071400
1777834802247387697,275.08770751953125,175.3435516357422,78.51639556884766,243.10440063476562,85.92996978759766,74.1781234741211,25.079999923706055,24.200000762939453,25.729999542236328,24.200000762939453,24.440000534057617,25.31999969482422,23.804269790649414,0.0,-0.15914559364318848,0.011444886215031147,-1.1436588764190674,1777834801907071400
1777834802347370573,275.08770751953125,175.3435516357422,78.51639556884766,243.10440063476562,85.92996978759766,74.1781234741211,25.079999923706055,24.200000762939453,25.729999542236328,24.200000762939453,24.360000610351562,25.399999618530273,23.804269790649414,0.0,-0.16213376820087433,0.014897187240421772,-1.1434674263000488,1777834802295199229
1777834802447372782,275.08770751953125,175.3435516357422,78.51639556884766,243.10440063476562,85.92996978759766,74.1781234741211,25.079999923706055,24.200000762939453,25.729999542236328,24.200000762939453,24.360000610351562,25.399999618530273,23.804269790649414,0.0,-0.16213376820087433,0.014897187240421772,-1.1434674263000488,1777834802295199229
1777834802547383565,23.804269790649414,0.0,-0.16011515259742737,0.015819866210222244,-1.1438066959381104,25.0,25.079999923706055,24.200000762939453,25.729999542236328,24.200000762939453,24.360000610351562,25.399999618530273,23.804269790649414,0.0,-0.16213376820087433,0.014897187240421772,-1.1434674263000488,1777834802468741233
1777834802647392737,23.804269790649414,0.0,-0.16011515259742737,0.015819866210222244,-1.1438066959381104,25.0,25.079999923706055,24.200000762939453,25.729999542236328,24.200000762939453,24.360000610351562,25.399999618530273,23.804269790649414,0.0,-0.16213376820087433,0.014897187240421772,-1.1434674263000488,1777834802468741233
1777834802747373261,23.804269790649414,0.0,-0.1596621572971344,0.014078617095947266,-1.1437768936157227,25.079999923706055,25.079999923706055,24.200000762939453,25.729999542236328,24.200000762939453,24.360000610351562,25.399999618530273,23.804269790649414,0.0,-0.16213376820087433,0.014897187240421772,-1.1434674263000488,1777834802668814392
1777834802847382822,23.804269790649414,0.0,-0.1596621572971344,0.014078617095947266,-1.1437768936157227,25.079999923706055,25.079999923706055,24.200000762939453,25.729999542236328,24.200000762939453,24.360000610351562,25.399999618530273,23.804269790649414,0.0,-0.16213376820087433,0.014897187240421772,-1.1434674263000488,1777834802668814392
1777834802947382957,23.804269790649414,0.0,-0.1585996150970459,0.00959595013409853,-1.1430466175079346,25.079999923706055,25.079999923706055,24.280000686645508,25.729999542236328,24.200000762939453,24.440000534057617,25.399999618530273,23.804269790649414,0.0,-0.16018588840961456,0.014824071899056435,-1.1432313919067383,1777834802868888292
1777834803047392759,23.804269790649414,0.0,-0.1585996150970459,0.00959595013409853,-1.1430466175079346,25.079999923706055,25.079999923706055,24.280000686645508,25.729999542236328,24.200000762939453,24.440000534057617,25.399999618530273,23.804269790649414,0.0,-0.16018588840961456,0.014824071899056435,-1.1432313919067383,1777834802868888292
1777834803147399339,275.08770751953125,175.3435516357422,78.51639556884766,243.10440063476562,85.92996978759766,74.1781234741211,25.079999923706055,24.280000686645508,25.729999542236328,24.200000762939453,24.440000534057617,25.399999618530273,23.804269790649414,0.0,-0.16018588840961456,0.014824071899056435,-1.1432313919067383,1777834803144723125
1777834803247389881,275.08770751953125,175.3435516357422,78.51639556884766,243.10440063476562,85.92996978759766,74.1781234741211,25.079999923706055,24.280000686645508,25.729999542236328,24.1200008392334,24.440000534057617,25.399999618530273,23.804269790649414,0.0,-0.16082763671875,0.015118916518986225,-1.1429245471954346,1777834803144723125
1777834803346448383,275.08770751953125,175.3435516357422,78.51639556884766,243.10440063476562,85.92996978759766,74.1781234741211,25.079999923706055,24.280000686645508,25.729999542236328,24.1200008392334,24.440000534057617,25.399999618530273,23.804269790649414,0.0,-0.16082763671875,0.015118916518986225,-1.1429245471954346,1777834803144723125
1777834803447398151,275.08770751953125,175.3435516357422,78.51639556884766,243.10440063476562,85.92996978759766,74.1781234741211,74.1781234741211,0.0,0.0,0.0,0.0,0.0,275.08770751953125,175.3435516357422,78.51639556884766,243.10440063476562,85.92996978759766,1777834803144723125
1777834803547399064,23.804269790649414,0.0,-0.16213853657245636,0.014329751022160053,-1.1426777839660645,25.0,74.1781234741211,0.0,0.0,0.0,0.0,0.0,275.08770751953125,175.3435516357422,78.51639556884766,243.10440063476562,85.92996978759766,1777834803469058733
1777834803647385088,23.804269790649414,0.0,-0.16213853657245636,0.014329751022160053,-1.1426777839660645,25.0,74.1781234741211,0.0,0.0,0.0,0.0,0.0,275.08770751953125,175.3435516357422,78.51639556884766,243.10440063476562,85.92996978759766,1777834803469058733
1777834803747402649,23.804269790649414,0.0,-0.16104181110858917,0.011821189895272255,-1.14154851436615,25.0,25.0,24.200000762939453,25.809999465942383,24.280000686645508,24.440000534057617,25.489999771118164,23.804269790649414,0.0,-0.15960295498371124,0.014702081680297852,-1.1435202360153198,1777834803669139225
1777834803847402395,23.804269790649414,0.0,-0.16104181110858917,0.011821189895272255,-1.14154851436615,25.0,25.0,24.200000762939453,25.809999465942383,24.280000686645508,24.440000534057617,25.489999771118164,23.804269790649414,0.0,-0.15960295498371124,0.014702081680297852,-1.1435202360153198,1777834803669139225
1777834803947394900,275.08770751953125,175.3435516357422,78.51639556884766,243.10440063476562,85.92996978759766,74.1781234741211,25.0,24.200000762939453,25.729999542236328,24.200000762939453,24.440000534057617,25.399999618530273,23.804040908813477,0.0,-0.16064484417438507,0.014477172866463661,-1.1425156593322754,1777834803920106705
1777834804046514273,275.08770751953125,175.3435516357422,78.51639556884766,243.10440063476562,85.92996978759766,74.1781234741211,25.0,24.200000762939453,25.729999542236328,24.200000762939453,24.440000534057617,25.399999618530273,23.804040908813477,0.0,-0.16064484417438507,0.014477172866463661,-1.1425156593322754,1777834803920106705
1777834804147413282,275.08770751953125,175.3435516357422,78.51639556884766,243.10440063476562,85.92996978759766,74.1781234741211,25.0,24.200000762939453,25.729999542236328,24.200000762939453,24.440000534057617,25.399999618530273,23.804040908813477,0.0,-0.16064484417438507,0.014477172866463661,-1.1425156593322754,1777834804086852184
1777834804247403787,275.08770751953125,175.3435516357422,78.51639556884766,243.10440063476562,85.92996978759766,74.1781234741211,25.079999923706055,24.200000762939453,25.729999542236328,24.200000762939453,24.360000610351562,25.489999771118164,23.804040908813477,0.0,-0.15901286900043488,0.011680920608341694,-1.1456584930419922,1777834804086852184
1777834804346419604,275.08770751953125,175.3435516357422,78.51639556884766,243.10440063476562,85.92996978759766,74.1781234741211,25.079999923706055,24.200000762939453,25.729999542236328,24.200000762939453,24.360000610351562,25.489999771118164,23.804040908813477,0.0,-0.15901286900043488,0.011680920608341694,-1.1456584930419922,1777834804324540392
1777834804447394039,275.08770751953125,175.3435516357422,78.51639556884766,243.10440063476562,85.92996978759766,74.1781234741211,25.079999923706055,24.1200008392334,25.729999542236328,24.280000686645508,24.360000610351562,25.31999969482422,23.804040908813477,0.0,-0.1609679013490677,0.01593073084950447,-1.1437475681304932,1777834804324540392
1777834804546647356,275.08770751953125,175.3435516357422,78.51639556884766,243.10440063476562,85.92996978759766,74.1781234741211,25.079999923706055,24.1200008392334,25.729999542236328,24.280000686645508,24.360000610351562,25.31999969482422,23.804040908813477,0.0,-0.1609679013490677,0.01593073084950447,-1.1437475681304932,1777834804517436950
1777834804647391827,275.08770751953125,175.3435516357422,78.51639556884766,243.10440063476562,85.92996978759766,74.1781234741211,25.0,24.280000686645508,25.809999465942383,24.200000762939453,24.440000534057617,25.399999618530273,23.804040908813477,0.0,-0.15976905822753906,0.013208389282226562,-1.1447051763534546,1777834804517436950
1777834804747406629,275.08770751953125,175.3435516357422,78.51639556884766,243.10440063476562,85.92996978759766,74.1781234741211,25.0,24.280000686645508,25.809999465942383,24.200000762939453,24.440000534057617,25.399999618530273,23.804040908813477,0.0,-0.15976905822753906,0.013208389282226562,-1.1447051763534546,1777834804517436950
1777834804846857873,275.08770751953125,175.3435516357422,78.51639556884766,243.10440063476562,85.92996978759766,74.1781234741211,74.1781234741211,0.0,0.0,0.0,0.0,0.0,275.08770751953125,175.3435516357422,78.51639556884766,243.10440063476562,85.92996978759766,1777834804517436950
1777834804946452895,23.804040908813477,0.0,-0.16125598549842834,0.013922452926635742,-1.1429286003112793,25.079999923706055,25.0,24.200000762939453,25.729999542236328,24.1200008392334,24.440000534057617,25.399999618530273,23.804040908813477,0.0,-0.1611006259918213,0.011739730834960938,-1.1428844928741455,1777834804869521551
1777834805046633161,23.804040908813477,0.0,-0.16125598549842834,0.013922452926635742,-1.1429286003112793,25.079999923706055,25.0,24.200000762939453,25.729999542236328,24.1200008392334,24.440000534057617,25.399999618530273,23.804040908813477,0.0,-0.1611006259918213,0.011739730834960938,-1.1428844928741455,1777834804869521551
1777834805147409965,23.804040908813477,0.0,-0.16125598549842834,0.013922452926635742,-1.1429286003112793,25.079999923706055,25.0,24.200000762939453,25.729999542236328,24.1200008392334,24.440000534057617,25.399999618530273,23.804040908813477,0.0,-0.1611006259918213,0.011739730834960938,-1.1428844928741455,1777834804869521551
1777834805246416208,275.08770751953125,175.3435516357422,78.51639556884766,243.10440063476562,85.92996978759766,74.1781234741211,25.0,24.280000686645508,25.649999618530273,24.1200008392334,24.440000534057617,25.399999618530273,23.804040908813477,0.0,-0.162119060754776,0.015103816986083984,-1.1409306526184082,1777834805155696923
1777834805346776344,275.08770751953125,175.3435516357422,78.51639556884766,243.10440063476562,85.92996978759766,74.1781234741211,25.079999923706055,24.200000762939453,25.729999542236328,24.200000762939453,24.440000534057617,25.31999969482422,23.804040908813477,0.0,-0.16093850135803223,0.011186202056705952,-1.1424461603164673,1777834805303254884
1777834805447411797,275.08770751953125,175.3435516357422,78.51639556884766,243.10440063476562,85.92996978759766,74.1781234741211,25.079999923706055,24.200000762939453,25.729999542236328,24.200000762939453,24.440000534057617,25.31999969482422,23.804040908813477,0.0,-0.16093850135803223,0.011186202056705952,-1.1424461603164673,1777834805303254884
1777834805546432558,275.08770751953125,175.3435516357422,78.51639556884766,243.10440063476562,85.92996978759766,74.1781234741211,25.079999923706055,24.280000686645508,25.729999542236328,24.200000762939453,24.360000610351562,25.31999969482422,23.804040908813477,0.0,-0.16038496792316437,0.009949207305908203,-1.1423754692077637,1777834805501117332
1777834805646414378,275.08770751953125,175.3435516357422,78.51639556884766,243.10440063476562,85.92996978759766,74.1781234741211,25.079999923706055,24.280000686645508,25.729999542236328,24.200000762939453,24.360000610351562,25.31999969482422,23.804040908813477,0.0,-0.16038496792316437,0.009949207305908203,-1.1423754692077637,1777834805501117332
1777834805746439698,275.08770751953125,175.3435516357422,78.51639556884766,243.10440063476562,85.92996978759766,74.1781234741211,25.079999923706055,24.280000686645508,25.729999542236328,24.200000762939453,24.360000610351562,25.31999969482422,23.804040908813477,0.0,-0.16038496792316437,0.009949207305908203,-1.1423754692077637,1777834805727413330
1777834805846681593,275.08770751953125,175.3435516357422,78.51639556884766,243.10440063476562,85.92996978759766,74.1781234741211,25.0,24.280000686645508,25.729999542236328,24.1200008392334,24.440000534057617,25.399999618530273,23.804040908813477,0.0,-0.16107121109962463,0.01687486842274666,-1.1441683769226074,1777834805727413330
1777834805946416801,275.08770751953125,175.3435516357422,78.51639556884766,243.10440063476562,85.92996978759766,74.1781234741211,25.0,24.280000686645508,25.729999542236328,24.1200008392334,24.440000534057617,25.399999618530273,23.804040908813477,0.0,-0.16107121109962463,0.01687486842274666,-1.1441683769226074,1777834805727413330
1777834806046437418,275.08770751953125,175.3435516357422,78.51639556884766,243.10440063476562,85.92996978759766,74.1781234741211,25.0,24.200000762939453,25.729999542236328,24.200000762939453,24.440000534057617,25.399999618530273,23.804040908813477,0.0,-0.16136646270751953,0.013304153457283974,-1.1436370611190796,1777834805957839955
1777834806146422534,275.08770751953125,175.3435516357422,78.51639556884766,243.10440063476562,85.92996978759766,74.1781234741211,25.0,24.200000762939453,25.729999542236328,24.200000762939453,24.440000534057617,25.399999618530273,23.804040908813477,0.0,-0.16136646270751953,0.013304153457283974,-1.1436370611190796,1777834806105440899
1777834806246460540,275.08770751953125,175.3435516357422,78.51639556884766,243.10440063476562,85.92996978759766,74.1781234741211,25.0,24.280000686645508,25.729999542236328,24.200000762939453,24.440000534057617,25.489999771118164,23.804040908813477,0.0,-0.15993118286132812,0.015266338363289833,-1.142773985862732,1777834806105440899
1777834806346726065,275.08770751953125,175.3435516357422,78.51639556884766,243.10440063476562,85.92996978759766,74.1781234741211,25.0,24.280000686645508,25.729999542236328,24.1200008392334,24.440000534057617,25.31999969482422,23.804040908813477,0.0,-0.16056974232196808,0.01327474880963564,-1.143718957901001,1777834806295118556
1777834806446414495,275.08770751953125,175.3435516357422,78.51639556884766,243.10440063476562,85.92996978759766,74.1781234741211,25.0,24.280000686645508,25.729999542236328,24.1200008392334,24.440000534057617,25.31999969482422,23.804040908813477,0.0,-0.16056974232196808,0.01327474880963564,-1.143718957901001,1777834806295118556
1777834806546607427,275.08770751953125,175.3435516357422,78.51639556884766,243.10440063476562,85.92996978759766,74.1781234741211,25.0,24.280000686645508,25.729999542236328,24.1200008392334,24.440000534057617,25.31999969482422,23.804040908813477,0.0,-0.16056974232196808,0.01327474880963564,-1.143718957901001,1777834806295118556
1777834806646430524,275.08770751953125,175.3435516357422,78.51639556884766,243.10440063476562,85.92996978759766,74.1781234741211,25.0,24.280000686645508,25.729999542236328,24.1200008392334,24.440000534057617,25.31999969482422,23.804040908813477,0.0,-0.16056974232196808,0.01327474880963564,-1.143718957901001,1777834806295118556
1777834806746431993,275.08770751953125,175.3435516357422,78.51639556884766,243.10440063476562,85.92996978759766,74.1781234741211,25.0,24.280000686645508,25.729999542236328,24.1200008392334,24.440000534057617,25.31999969482422,23.804040908813477,0.0,-0.16056974232196808,0.01327474880963564,-1.143718957901001,1777834806295118556
1777834806846452369,275.08770751953125,175.3435516357422,78.51639556884766,243.10440063476562,85.92996978759766,74.1781234741211,25.0,24.280000686645508,25.729999542236328,24.1200008392334,24.440000534057617,25.31999969482422,23.804040908813477,0.0,-0.16056974232196808,0.01327474880963564,-1.143718957901001,1777834806295118556
1777834806946431059,23.804040908813477,0.0,-0.16155798733234406,0.01021265983581543,-1.143430471420288,25.079999923706055,74.1781234741211,0.0,0.0,0.0,0.0,0.0,275.08770751953125,175.3435516357422,78.51639556884766,243.10440063476562,85.92996978759766,1777834806886259278
1777834807046709640,23.804040908813477,0.0,-0.16155798733234406,0.01021265983581543,-1.143430471420288,25.079999923706055,74.1781234741211,0.0,0.0,0.0,0.0,0.0,275.08770751953125,175.3435516357422,78.51639556884766,243.10440063476562,85.92996978759766,1777834806886259278
1777834807146442440,23.804040908813477,0.0,-0.1611892282962799,0.011998017318546772,-1.1427664756774902,25.079999923706055,25.0,24.200000762939453,25.809999465942383,24.200000762939453,24.440000534057617,25.399999618530273,23.804040908813477,0.0,-0.1610640585422516,0.014437039382755756,-1.143223762512207,1777834807084157206
1777834807246440464,23.804040908813477,0.0,-0.1611892282962799,0.011998017318546772,-1.1427664756774902,25.079999923706055,25.0,24.200000762939453,25.809999465942383,24.200000762939453,24.440000534057617,25.399999618530273,23.804040908813477,0.0,-0.1610640585422516,0.014437039382755756,-1.143223762512207,1777834807084157206
1777834807346466322,275.08770751953125,175.3435516357422,78.51639556884766,243.10440063476562,85.92996978759766,74.1781234741211,25.0,24.280000686645508,25.729999542236328,24.200000762939453,24.440000534057617,25.399999618530273,23.804040908813477,0.0,-0.1593891680240631,0.0107510881498456,-1.1438214778900146,1777834807284249514
1777834807446439531,275.08770751953125,175.3435516357422,78.51639556884766,243.10440063476562,85.92996978759766,74.1781234741211,25.0,24.280000686645508,25.729999542236328,24.200000762939453,24.440000534057617,25.399999618530273,23.804040908813477,0.0,-0.1593891680240631,0.0107510881498456,-1.1438214778900146,1777834807284249514
1777834807546674426,23.804040908813477,0.0,-0.15870292484760284,0.010190406814217567,-1.1422991752624512,25.079999923706055,25.0,24.280000686645508,25.729999542236328,24.200000762939453,24.440000534057617,25.399999618530273,23.804040908813477,0.0,-0.15868067741394043,0.013260046020150185,-1.1452233791351318,1777834807484309080
1777834807646443134,23.804040908813477,0.0,-0.15870292484760284,0.010190406814217567,-1.1422991752624512,25.079999923706055,25.0,24.280000686645508,25.729999542236328,24.200000762939453,24.440000534057617,25.399999618530273,23.804040908813477,0.0,-0.15868067741394043,0.013260046020150185,-1.1452233791351318,1777834807484309080
1777834807746445380,275.08770751953125,175.3435516357422,78.51639556884766,243.10440063476562,85.92996978759766,74.1781234741211,25.0,24.280000686645508,25.729999542236328,24.200000762939453,24.440000534057617,25.399999618530273,23.804040908813477,0.0,-0.15868067741394043,0.013260046020150185,-1.1452233791351318,1777834807715435097
1777834807846444886,275.08770751953125,175.3435516357422,78.51639556884766,243.10440063476562,85.92996978759766,74.1781234741211,25.0,24.280000686645508,25.729999542236328,24.200000762939453,24.440000534057617,25.489999771118164,23.804040908813477,0.0,-0.16136646270751953,0.01012404728680849,-1.1437041759490967,1777834807715435097
1777834807946461113,275.08770751953125,175.3435516357422,78.51639556884766,243.10440063476562,85.92996978759766,74.1781234741211,25.0,24.280000686645508,25.729999542236328,24.200000762939453,24.440000534057617,25.489999771118164,23.804040908813477,0.0,-0.16136646270751953,0.01012404728680849,-1.1437041759490967,1777834807715435097
1777834808046710212,275.08770751953125,175.3435516357422,78.51639556884766,243.10440063476562,85.92996978759766,74.1781234741211,25.0,24.280000686645508,25.649999618530273,24.200000762939453,24.440000534057617,25.399999618530273,23.804040908813477,0.0,-0.1597062647342682,0.01450657844543457,-1.1433712244033813,1777834807969623830
1777834808146529939,275.08770751953125,175.3435516357422,78.51639556884766,243.10440063476562,85.92996978759766,74.1781234741211,25.0,24.280000686645508,25.649999618530273,24.200000762939453,24.440000534057617,25.399999618530273,23.804040908813477,0.0,-0.1597062647342682,0.01450657844543457,-1.1433712244033813,1777834808130214952
1777834808246459722,275.08770751953125,175.3435516357422,78.51639556884766,243.10440063476562,85.92996978759766,74.1781234741211,25.0,24.200000762939453,25.729999542236328,24.200000762939453,24.440000534057617,25.31999969482422,23.804040908813477,0.0,-0.1606583595275879,0.01582701876759529,-1.1411654949188232,1777834808130214952
1777834808346484950,275.08770751953125,175.3435516357422,78.51639556884766,243.10440063476562,85.92996978759766,74.1781234741211,25.0,24.200000762939453,25.729999542236328,24.200000762939453,24.440000534057617,25.31999969482422,23.804040908813477,0.0,-0.1606583595275879,0.01582701876759529,-1.1411654949188232,1777834808130214952
1777834808446464511,275.08770751953125,175.3435516357422,78.51639556884766,243.10440063476562,85.92996978759766,74.1781234741211,25.0,24.200000762939453,25.809999465942383,24.200000762939453,24.440000534057617,25.399999618530273,23.804040908813477,0.0,-0.16178686916828156,0.014299948699772358,-1.143711805343628,1777834808361816767
1777834808546439035,275.08770751953125,175.3434600830078,78.51639556884766,243.10440063476562,85.92996978759766,74.1781234741211,25.0,24.200000762939453,25.809999465942383,24.200000762939453,24.440000534057617,25.399999618530273,23.804040908813477,0.0,-0.16178686916828156,0.014299948699772358,-1.143711805343628,1777834808514044376
1777834808646464077,275.08770751953125,175.3434600830078,78.51639556884766,243.10440063476562,85.92996978759766,74.1781234741211,25.0,24.200000762939453,25.809999465942383,24.280000686645508,24.440000534057617,25.399999618530273,23.804040908813477,0.0,-0.16025979816913605,0.015384355559945107,-1.1426777839660645,1777834808514044376
1777834808746480212,275.08770751953125,175.3434600830078,78.51639556884766,243.10440063476562,85.92996978759766,74.1781234741211,25.0,24.200000762939453,25.809999465942383,24.280000686645508,24.440000534057617,25.399999618530273,23.804040908813477,0.0,-0.16025979816913605,0.015384355559945107,-1.1426777839660645,1777834808514044376
1777834808846445884,275.08770751953125,175.3434600830078,78.51639556884766,243.10440063476562,85.92996978759766,74.1781234741211,25.0,24.200000762939453,25.809999465942383,24.200000762939453,24.440000534057617,25.31999969482422,23.804590225219727,0.0,-0.16078431904315948,0.01631339266896248,-1.1421246528625488,1777834808758437813
1777834808946462371,275.08770751953125,175.3434600830078,78.51639556884766,243.10440063476562,85.92996978759766,74.1781234741211,25.0,24.200000762939453,25.809999465942383,24.200000762939453,24.440000534057617,25.31999969482422,23.804590225219727,0.0,-0.16078431904315948,0.01631339266896248,-1.1421246528625488,1777834808918042709
1777834809046467358,275.08770751953125,175.3434600830078,78.51639556884766,243.10440063476562,85.92996978759766,74.1781234741211,25.0,24.280000686645508,25.729999542236328,24.200000762939453,24.360000610351562,25.489999771118164,23.804590225219727,0.0,-0.15917301177978516,0.010648170486092567,-1.1428697109222412,1777834808918042709
1777834809146464919,275.08770751953125,175.3435516357422,78.51639556884766,243.10440063476562,85.92996978759766,74.1781234741211,25.0,24.280000686645508,25.729999542236328,24.200000762939453,24.360000610351562,25.489999771118164,23.804590225219727,0.0,-0.15917301177978516,0.010648170486092567,-1.1428697109222412,1777834809116674437
1777834809246465776,275.08770751953125,175.3435516357422,78.51639556884766,243.10440063476562,85.92996978759766,74.1781234741211,25.0,24.1200008392334,25.809999465942383,24.200000762939453,24.440000534057617,25.489999771118164,23.804590225219727,0.0,-0.15947461128234863,0.011707544326782227,-1.1437995433807373,1777834809116674437
1777834809346465930,275.08770751953125,175.3434600830078,78.51639556884766,243.10440063476562,85.92996978759766,74.1781234741211,24.920000076293945,24.200000762939453,25.649999618530273,24.200000762939453,24.360000610351562,25.489999771118164,23.804590225219727,0.0,-0.1603555679321289,0.012462933547794819,-1.1420066356658936,1777834809311246983
1777834809446484769,275.08770751953125,175.3434600830078,78.51639556884766,243.10440063476562,85.92996978759766,74.1781234741211,24.920000076293945,24.200000762939453,25.649999618530273,24.200000762939453,24.360000610351562,25.489999771118164,23.804590225219727,0.0,-0.1603555679321289,0.012462933547794819,-1.1420066356658936,1777834809311246983
1777834809546486608,275.08770751953125,175.3435516357422,78.51639556884766,243.10440063476562,85.92996978759766,74.1781234741211,24.920000076293945,24.200000762939453,25.649999618530273,24.200000762939453,24.360000610351562,25.489999771118164,23.804590225219727,0.0,-0.1603555679321289,0.012462933547794819,-1.1420066356658936,1777834809522630573
1777834809646469261,275.08770751953125,175.3435516357422,78.51639556884766,243.10440063476562,85.92996978759766,74.1781234741211,25.079999923706055,24.280000686645508,25.809999465942383,24.280000686645508,24.440000534057617,25.399999618530273,23.804590225219727,0.0,-0.162119060754776,0.016019344329833984,-1.142071008682251,1777834809522630573
1777834809746533007,275.08770751953125,175.3435516357422,78.51639556884766,243.10440063476562,85.92996978759766,74.1781234741211,25.079999923706055,24.280000686645508,25.809999465942383,24.280000686645508,24.440000534057617,25.399999618530273,23.804590225219727,0.0,-0.162119060754776,0.016019344329833984,-1.142071008682251,1777834809717303064
1777834809846478031,275.08770751953125,175.3435516357422,78.51639556884766,243.10440063476562,85.92996978759766,74.1781234741211,25.0,24.200000762939453,25.809999465942383,24.200000762939453,24.360000610351562,25.31999969482422,23.804590225219727,0.0,-0.16030628979206085,0.014481544494628906,-1.1426925659179688,1777834809717303064
1777834809946477740,275.08770751953125,175.3435516357422,78.51639556884766,243.10440063476562,85.92996978759766,74.1781234741211,25.0,24.280000686645508,25.809999465942383,24.200000762939453,24.440000534057617,25.399999618530273,23.804590225219727,0.0,-0.16045132279396057,0.016491413116455078,-1.1443085670471191,1777834809912520224
1777834810046499746,275.08770751953125,175.3435516357422,78.51639556884766,243.10440063476562,85.92996978759766,74.1781234741211,25.0,24.280000686645508,25.809999465942383,24.200000762939453,24.440000534057617,25.399999618530273,23.804590225219727,0.0,-0.16045132279396057,0.016491413116455078,-1.1443085670471191,1777834809912520224
1777834810146478955,275.08770751953125,175.3435516357422,78.51639556884766,243.10440063476562,85.92996978759766,74.1781234741211,25.0,24.280000686645508,25.809999465942383,24.200000762939453,24.440000534057617,25.399999618530273,23.804590225219727,0.0,-0.16045132279396057,0.016491413116455078,-1.1443085670471191,1777834810139866819
1777834810246470219,275.08770751953125,175.3435516357422,78.51639556884766,243.10440063476562,85.92996978759766,74.1781234741211,25.0,24.280000686645508,25.649999618530273,24.280000686645508,24.440000534057617,25.31999969482422,23.804590225219727,0.0,-0.1616159975528717,0.015629131346940994,-1.1441683769226074,1777834810139866819
1777834810346483632,275.08770751953125,175.3435516357422,78.51639556884766,243.10440063476562,85.92996978759766,74.1781234741211,25.079999923706055,24.280000686645508,25.729999542236328,24.200000762939453,24.360000610351562,25.489999771118164,23.804590225219727,0.0,-0.1604660302400589,0.01258810330182314,-1.142958402633667,1777834810322052133
1777834810446486564,275.08770751953125,175.3435516357422,78.51639556884766,243.10440063476562,85.92996978759766,74.1781234741211,25.079999923706055,24.280000686645508,25.729999542236328,24.200000762939453,24.360000610351562,25.489999771118164,23.804590225219727,0.0,-0.1604660302400589,0.01258810330182314,-1.142958402633667,1777834810322052133
1777834810546469754,275.08770751953125,175.3435516357422,78.51639556884766,243.10440063476562,85.92996978759766,74.1781234741211,25.079999923706055,24.280000686645508,25.729999542236328,24.200000762939453,24.360000610351562,25.489999771118164,23.804590225219727,0.0,-0.1604660302400589,0.01258810330182314,-1.142958402633667,1777834810518497464
1777834810646470871,275.08770751953125,175.3435516357422,78.51639556884766,243.10440063476562,85.92996978759766,74.1781234741211,25.079999923706055,24.200000762939453,25.809999465942383,24.200000762939453,24.360000610351562,25.399999618530273,23.804590225219727,0.0,-0.16031861305236816,0.015401044860482216,-1.144382119178772,1777834810518497464
1777834810746475821,275.08770751953125,175.3435516357422,78.51639556884766,243.10440063476562,85.92996978759766,74.1781234741211,25.079999923706055,24.200000762939453,25.809999465942383,24.200000762939453,24.360000610351562,25.399999618530273,23.804590225219727,0.0,-0.16031861305236816,0.015401044860482216,-1.144382119178772,1777834810518497464
1777834810846557215,275.08770751953125,175.3435516357422,78.51639556884766,243.10440063476562,85.92996978759766,74.1781234741211,25.079999923706055,24.200000762939453,25.809999465942383,24.200000762939453,24.360000610351562,25.399999618530273,23.804590225219727,0.0,-0.16031861305236816,0.015401044860482216,-1.144382119178772,1777834810518497464
1777834810946483406,275.08770751953125,175.3435516357422,78.51639556884766,243.10440063476562,85.92996978759766,74.1781234741211,25.0,24.200000762939453,25.729999542236328,24.200000762939453,24.440000534057617,25.399999618530273,23.804590225219727,0.0,-0.16079822182655334,0.013908544555306435,-1.1428550481796265,1777834810894146320
1777834811046487189,275.08770751953125,175.3435516357422,78.51639556884766,243.10440063476562,85.92996978759766,74.1781234741211,25.0,24.200000762939453,25.729999542236328,24.200000762939453,24.440000534057617,25.399999618530273,23.804590225219727,0.0,-0.16079822182655334,0.013908544555306435,-1.1428550481796265,1777834810894146320
1777834811146494009,23.804590225219727,0.0,-0.16017118096351624,0.012912750244140625,-1.1418282985687256,25.079999923706055,25.0,24.200000762939453,25.729999542236328,24.200000762939453,24.440000534057617,25.399999618530273,23.804590225219727,0.0,-0.16079822182655334,0.013908544555306435,-1.1428550481796265,1777834811092713696
1777834811246492403,23.804590225219727,0.0,-0.16017118096351624,0.012912750244140625,-1.1418282985687256,25.079999923706055,25.079999923706055,24.280000686645508,25.729999542236328,24.200000762939453,24.360000610351562,25.489999771118164,23.804590225219727,0.0,-0.16026218235492706,0.012669563293457031,-1.1431598663330078,1777834811092713696
1777834811346560372,23.804590225219727,0.0,-0.16017118096351624,0.012912750244140625,-1.1418282985687256,25.079999923706055,25.079999923706055,24.280000686645508,25.729999542236328,24.200000762939453,24.360000610351562,25.489999771118164,23.804590225219727,0.0,-0.16026218235492706,0.012669563293457031,-1.1431598663330078,1777834811092713696
1777834811446486692,275.08770751953125,175.3435516357422,78.51639556884766,243.10440063476562,85.92996978759766,74.1781234741211,25.079999923706055,24.280000686645508,25.649999618530273,24.200000762939453,24.440000534057617,25.31999969482422,23.804590225219727,0.0,-0.159600168466568,0.014768043532967567,-1.1426115036010742,1777834811347156133
1777834811546494031,275.08770751953125,175.3435516357422,78.51639556884766,243.10440063476562,85.92996978759766,74.1781234741211,25.079999923706055,24.280000686645508,25.649999618530273,24.200000762939453,24.440000534057617,25.31999969482422,23.804590225219727,0.0,-0.159600168466568,0.014768043532967567,-1.1426115036010742,1777834811520724045
1777834811646494184,275.08770751953125,175.3435516357422,78.51639556884766,243.10440063476562,85.92996978759766,74.1781234741211,25.079999923706055,24.280000686645508,25.729999542236328,24.200000762939453,24.440000534057617,25.399999618530273,23.804590225219727,0.0,-0.16256172955036163,0.010684728622436523,-1.1415338516235352,1777834811520724045
1777834811746495356,275.08770751953125,175.3435516357422,78.51639556884766,243.10440063476562,85.92996978759766,74.1781234741211,25.079999923706055,24.280000686645508,25.729999542236328,24.200000762939453,24.440000534057617,25.399999618530273,23.804590225219727,0.0,-0.16256172955036163,0.010684728622436523,-1.1415338516235352,1777834811717512525
1777834811846478417,275.08770751953125,175.3435516357422,78.51639556884766,243.10440063476562,85.92996978759766,74.1781234741211,25.079999923706055,24.280000686645508,25.729999542236328,24.200000762939453,24.440000534057617,25.489999771118164,23.804590225219727,0.0,-0.16076882183551788,0.011857748031616211,-1.1422280073165894,1777834811717512525
1777834811946501608,275.08770751953125,175.3435516357422,78.51639556884766,243.10440063476562,85.92996978759766,74.1781234741211,25.079999923706055,24.280000686645508,25.729999542236328,24.200000762939453,24.440000534057617,25.489999771118164,23.804590225219727,0.0,-0.16076882183551788,0.011857748031616211,-1.1422280073165894,1777834811916841959
1777834812046497928,275.08770751953125,175.3435516357422,78.51639556884766,243.10440063476562,85.92996978759766,74.1781234741211,25.079999923706055,24.200000762939453,25.729999542236328,24.280000686645508,24.440000534057617,25.399999618530273,23.804590225219727,0.0,-0.16073186695575714,0.017564693465828896,-1.1428478956222534,1777834811916841959
1777834812146496915,275.08770751953125,175.3435516357422,78.51639556884766,243.10440063476562,85.92996978759766,74.1781234741211,25.079999923706055,24.200000762939453,25.729999542236328,24.280000686645508,24.440000534057617,25.399999618530273,23.804590225219727,0.0,-0.16073186695575714,0.017564693465828896,-1.1428478956222534,1777834812141552693
1777834812246495957,275.08770751953125,175.3435516357422,78.51639556884766,243.10440063476562,85.92996978759766,74.1781234741211,25.0,24.200000762939453,25.809999465942383,24.200000762939453,24.440000534057617,25.399999618530273,23.804590225219727,0.0,-0.16154327988624573,0.010714133270084858,-1.143120527267456,1777834812141552693
1777834812346512093,275.08770751953125,175.3435516357422,78.51639556884766,243.10440063476562,85.92996978759766,74.1781234741211,25.0,24.200000762939453,25.809999465942383,24.200000762939453,24.440000534057617,25.399999618530273,23.804590225219727,0.0,-0.16154327988624573,0.010714133270084858,-1.143120527267456,1777834812335845219
1777834812446511579,275.08770751953125,175.3435516357422,78.51639556884766,243.10440063476562,85.92996978759766,74.1781234741211,25.0,24.1200008392334,25.809999465942383,24.200000762939453,24.440000534057617,25.489999771118164,23.804590225219727,0.0,-0.15967686474323273,0.011744499206542969,-1.1425009965896606,1777834812335845219
1777834812546491418,275.08770751953125,175.3435516357422,78.51639556884766,243.10440063476562,85.92996978759766,74.1781234741211,25.0,24.1200008392334,25.809999465942383,24.200000762939453,24.440000534057617,25.489999771118164,23.804590225219727,0.0,-0.15967686474323273,0.011744499206542969,-1.1425009965896606,1777834812335845219
1777834812646462942,275.08770751953125,175.3435516357422,78.51639556884766,243.10440063476562,85.92996978759766,74.1781234741211,25.0,24.1200008392334,25.809999465942383,24.200000762939453,24.440000534057617,25.489999771118164,23.804590225219727,0.0,-0.15967686474323273,0.011744499206542969,-1.1425009965896606,1777834812335845219
1777834812746549744,23.804590225219727,0.0,-0.1607390195131302,0.014233985915780067,-1.1430985927581787,25.079999923706055,25.0,24.280000686645508,25.809999465942383,24.200000762939453,24.520000457763672,25.399999618530273,23.804590225219727,0.0,-0.16115982830524445,0.013583898544311523,-1.142674207687378,1777834812693203969
1777834812846475212,23.804590225219727,0.0,-0.1607390195131302,0.014233985915780067,-1.1430985927581787,25.079999923706055,25.0,24.280000686645508,25.809999465942383,24.200000762939453,24.520000457763672,25.399999618530273,23.804590225219727,0.0,-0.16115982830524445,0.013583898544311523,-1.142674207687378,1777834812693203969
1777834812946590477,275.08770751953125,175.3435516357422,78.51639556884766,243.10440063476562,85.92996978759766,74.1781234741211,25.0,24.280000686645508,25.809999465942383,24.200000762939453,24.520000457763672,25.399999618530273,23.804590225219727,0.0,-0.16115982830524445,0.013583898544311523,-1.142674207687378,1777834812920729528
1777834813046526723,275.08770751953125,175.3435516357422,78.51639556884766,243.10440063476562,85.92996978759766,74.1781234741211,25.0,24.280000686645508,25.809999465942383,24.200000762939453,24.520000457763672,25.399999618530273,23.804590225219727,0.0,-0.16115982830524445,0.013583898544311523,-1.142674207687378,1777834812920729528
1777834813146536821,275.08770751953125,175.3435516357422,78.51639556884766,243.10440063476562,85.92996978759766,74.1781234741211,25.0,24.280000686645508,25.809999465942383,24.200000762939453,24.520000457763672,25.399999618530273,23.804590225219727,0.0,-0.16115982830524445,0.013583898544311523,-1.142674207687378,1777834812920729528
1777834813246518808,23.804590225219727,0.0,-0.15989422798156738,0.013533035293221474,-1.1435130834579468,25.0,74.1781234741211,0.0,0.0,0.0,0.0,0.0,275.08770751953125,175.3435516357422,78.51639556884766,243.10440063476562,85.92996978759766,1777834813158768108
1777834813346523332,23.804590225219727,0.0,-0.15998680889606476,0.014966726303100586,-1.142803430557251,25.0,74.1781234741211,0.0,0.0,0.0,0.0,0.0,275.08770751953125,175.3435516357422,78.51639556884766,243.10440063476562,85.92996978759766,1777834813293420077
1777834813446531911,23.804590225219727,0.0,-0.15998680889606476,0.014966726303100586,-1.142803430557251,25.0,74.1781234741211,0.0,0.0,0.0,0.0,0.0,275.08770751953125,175.3435516357422,78.51639556884766,243.10440063476562,85.92996978759766,1777834813293420077
1777834813546545028,23.804590225219727,0.0,-0.15998680889606476,0.014966726303100586,-1.142803430557251,25.0,74.1781234741211,0.0,0.0,0.0,0.0,0.0,275.08770751953125,175.3435516357422,78.51639556884766,243.10440063476562,85.92996978759766,1777834813293420077
1777834813646520107,23.804590225219727,0.0,-0.15998680889606476,0.014966726303100586,-1.142803430557251,25.0,74.1781234741211,0.0,0.0,0.0,0.0,0.0,275.08770751953125,175.3435516357422,78.51639556884766,243.10440063476562,85.92996978759766,1777834813293420077
1777834813746513502,275.08770751953125,175.3435516357422,78.51639556884766,243.10440063476562,85.92996978759766,74.1781234741211,25.079999923706055,24.280000686645508,25.649999618530273,24.200000762939453,24.440000534057617,25.399999618530273,23.804590225219727,0.0,-0.1594233512878418,0.008862813003361225,-1.1447858810424805,1777834813693531340
1777834813846533600,275.08770751953125,175.3435516357422,78.51639556884766,243.10440063476562,85.92996978759766,74.1781234741211,25.079999923706055,24.280000686645508,25.649999618530273,24.200000762939453,24.440000534057617,25.399999618530273,23.804590225219727,0.0,-0.1594233512878418,0.008862813003361225,-1.1447858810424805,1777834813693531340
1777834813946512475,23.804590225219727,0.0,-0.16038496792316437,0.011289914138615131,-1.14393949508667,25.0,74.1781234741211,0.0,0.0,0.0,0.0,0.0,275.08770751953125,175.3435516357422,78.51639556884766,243.10440063476562,85.92996978759766,1777834813893646906
1777834814046533351,23.804590225219727,0.0,-0.16038496792316437,0.011289914138615131,-1.14393949508667,25.0,74.1781234741211,0.0,0.0,0.0,0.0,0.0,275.08770751953125,175.3435516357422,78.51639556884766,243.10440063476562,85.92996978759766,1777834813893646906
1777834814146525505,23.804357528686523,0.0,-0.16031146049499512,0.014528830535709858,-1.1429245471954346,25.0,25.079999923706055,24.200000762939453,25.809999465942383,24.200000762939453,24.440000534057617,25.489999771118164,23.804357528686523,0.0,-0.1598612368106842,0.016262531280517578,-1.1427334547042847,1777834814093695306
1777834814246530251,23.804357528686523,0.0,-0.16031146049499512,0.014528830535709858,-1.1429245471954346,25.0,25.079999923706055,24.200000762939453,25.809999465942383,24.200000762939453,24.440000534057617,25.489999771118164,23.804357528686523,0.0,-0.1598612368106842,0.016262531280517578,-1.1427334547042847,1777834814093695306
1777834814346559331,275.08770751953125,175.3435516357422,78.51639556884766,243.10440063476562,85.92996978759766,74.1781234741211,25.079999923706055,24.200000762939453,25.809999465942383,24.200000762939453,24.440000534057617,25.489999771118164,23.804357528686523,0.0,-0.1598612368106842,0.016262531280517578,-1.1427334547042847,1777834814328599633
1777834814446531503,275.08770751953125,175.3435516357422,78.51639556884766,243.10440063476562,85.92996978759766,74.1781234741211,25.079999923706055,24.200000762939453,25.809999465942383,24.200000762939453,24.440000534057617,25.489999771118164,23.804357528686523,0.0,-0.16022562980651855,0.010537305846810341,-1.1441612243652344,1777834814328599633
1777834814546598027,275.08770751953125,175.3435516357422,78.51639556884766,243.10440063476562,85.92996978759766,74.1781234741211,25.079999923706055,24.200000762939453,25.809999465942383,24.200000762939453,24.440000534057617,25.489999771118164,23.804357528686523,0.0,-0.16022562980651855,0.010537305846810341,-1.1441612243652344,1777834814522270417
1777834814646541902,275.08770751953125,175.3435516357422,78.51639556884766,243.10440063476562,85.92996978759766,74.1781234741211,25.0,24.280000686645508,25.809999465942383,24.200000762939453,24.440000534057617,25.399999618530273,23.804357528686523,0.0,-0.16074061393737793,0.014698107726871967,-1.1420050859451294,1777834814522270417
1777834814746544574,275.08770751953125,175.3435516357422,78.51639556884766,243.10440063476562,85.92996978759766,74.1781234741211,25.079999923706055,24.200000762939453,25.729999542236328,24.200000762939453,24.440000534057617,25.489999771118164,23.804357528686523,0.0,-0.1600193977355957,0.013244946487247944,-1.1436012983322144,1777834814722502688
1777834814846551709,275.08770751953125,175.3435516357422,78.51639556884766,243.10440063476562,85.92996978759766,74.1781234741211,25.079999923706055,24.200000762939453,25.729999542236328,24.200000762939453,24.440000534057617,25.489999771118164,23.804357528686523,0.0,-0.1600193977355957,0.013244946487247944,-1.1436012983322144,1777834814722502688
1777834814946528381,275.08770751953125,175.3435516357422,78.51639556884766,243.10440063476562,85.92996978759766,74.1781234741211,25.079999923706055,24.200000762939453,25.729999542236328,24.200000762939453,24.440000534057617,25.489999771118164,23.804357528686523,0.0,-0.1600193977355957,0.013244946487247944,-1.1436012983322144,1777834814722502688
1777834815046529516,275.08770751953125,175.3435516357422,78.51639556884766,243.10440063476562,85.92996978759766,74.1781234741211,25.079999923706055,24.200000762939453,25.729999542236328,24.200000762939453,24.440000534057617,25.489999771118164,23.804357528686523,0.0,-0.1600193977355957,0.013244946487247944,-1.1436012983322144,1777834814722502688
1777834815146557985,23.804357528686523,0.0,-0.1608796864748001,0.013658205047249794,-1.1449427604675293,25.079999923706055,74.1781234741211,0.0,0.0,0.0,0.0,0.0,275.08770751953125,175.3435516357422,78.51639556884766,243.10440063476562,85.92996978759766,1777834815123101915
1777834815246563268,23.804357528686523,0.0,-0.1608796864748001,0.013658205047249794,-1.1449427604675293,25.079999923706055,74.1781234741211,0.0,0.0,0.0,0.0,0.0,275.08770751953125,175.3435516357422,78.51639556884766,243.10440063476562,85.92996978759766,1777834815123101915
1777834815346671367,23.804357528686523,0.0,-0.16075530648231506,0.014233985915780067,-1.1438663005828857,25.0,25.079999923706055,24.280000686645508,25.809999465942383,24.200000762939453,24.440000534057617,25.489999771118164,23.804357528686523,0.0,-0.16035039722919464,0.013016462326049805,-1.143255591392517,1777834815300265433
1777834815446547186,23.804357528686523,0.0,-0.16075530648231506,0.014233985915780067,-1.1438663005828857,25.0,25.079999923706055,24.280000686645508,25.809999465942383,24.200000762939453,24.440000534057617,25.489999771118164,23.804357528686523,0.0,-0.16035039722919464,0.013016462326049805,-1.143255591392517,1777834815300265433
1777834815546543766,275.08770751953125,175.3435516357422,78.51639556884766,243.10440063476562,85.92996978759766,74.1781234741211,25.079999923706055,24.280000686645508,25.809999465942383,24.200000762939453,24.440000534057617,25.489999771118164,23.804357528686523,0.0,-0.16035039722919464,0.013016462326049805,-1.143255591392517,1777834815528695125
1777834815646535975,275.08770751953125,175.3435516357422,78.51639556884766,243.10440063476562,85.92996978759766,74.1781234741211,25.0,24.280000686645508,25.809999465942383,24.280000686645508,24.440000534057617,25.489999771118164,23.804357528686523,0.0,-0.16010046005249023,0.01201629638671875,-1.1449209451675415,1777834815528695125
1777834815746529814,275.08770751953125,175.3435516357422,78.51639556884766,243.10440063476562,85.92996978759766,74.1781234741211,25.0,24.280000686645508,25.809999465942383,24.280000686645508,24.440000534057617,25.489999771118164,23.804357528686523,0.0,-0.16010046005249023,0.01201629638671875,-1.1449209451675415,1777834815528695125
1777834815846698709,275.08770751953125,175.3435516357422,78.51639556884766,243.10440063476562,85.92996978759766,74.1781234741211,25.0,24.280000686645508,25.809999465942383,24.280000686645508,24.440000534057617,25.489999771118164,23.804357528686523,0.0,-0.16010046005249023,0.01201629638671875,-1.1449209451675415,1777834815528695125
1777834815946547565,275.08770751953125,175.3435516357422,78.51639556884766,243.10440063476562,85.92996978759766,74.1781234741211,25.0,24.280000686645508,25.809999465942383,24.280000686645508,24.440000534057617,25.489999771118164,23.804357528686523,0.0,-0.16010046005249023,0.01201629638671875,-1.1449209451675415,1777834815528695125
1777834816046539404,275.08770751953125,175.3435516357422,78.51639556884766,243.10440063476562,85.92996978759766,74.1781234741211,74.1781234741211,0.0,0.0,0.0,0.0,0.0,275.08770751953125,175.3435516357422,78.51639556884766,243.10440063476562,85.92996978759766,1777834815528695125
1777834816146658836,23.804357528686523,0.0,-0.16008257865905762,0.012840429320931435,-1.142773985862732,25.0,74.1781234741211,0.0,0.0,0.0,0.0,0.0,275.08770751953125,175.3435516357422,78.51639556884766,243.10440063476562,85.92996978759766,1777834816108697415
1777834816246551044,23.804357528686523,0.0,-0.16008257865905762,0.012840429320931435,-1.142773985862732,25.0,74.1781234741211,0.0,0.0,0.0,0.0,0.0,275.08770751953125,175.3435516357422,78.51639556884766,243.10440063476562,85.92996978759766,1777834816108697415
1777834816346742865,23.804357528686523,0.0,-0.1590053141117096,0.012403726577758789,-1.1448005437850952,25.0,25.079999923706055,24.280000686645508,25.809999465942383,24.280000686645508,24.360000610351562,25.399999618530273,23.804357528686523,0.0,-0.16140341758728027,0.013539393432438374,-1.143843650817871,1777834816308789464
1777834816446571667,23.804357528686523,0.0,-0.1590053141117096,0.012403726577758789,-1.1448005437850952,25.0,25.079999923706055,24.280000686645508,25.809999465942383,24.280000686645508,24.360000610351562,25.399999618530273,23.804357528686523,0.0,-0.16140341758728027,0.013539393432438374,-1.143843650817871,1777834816308789464
1777834816546584931,23.804357528686523,0.0,-0.1625172197818756,0.012950897216796875,-1.1438214778900146,25.0,25.079999923706055,24.280000686645508,25.809999465942383,24.200000762939453,24.440000534057617,25.489999771118164,23.804357528686523,0.0,-0.16066670417785645,0.017167329788208008,-1.14393949508667,1777834816508865123
1777834816646641289,23.804357528686523,0.0,-0.1625172197818756,0.012950897216796875,-1.1438214778900146,25.0,25.079999923706055,24.280000686645508,25.809999465942383,24.200000762939453,24.440000534057617,25.489999771118164,23.804357528686523,0.0,-0.16066670417785645,0.017167329788208008,-1.14393949508667,1777834816508865123
1777834816746575646,275.08770751953125,175.3435516357422,78.51639556884766,243.10440063476562,85.92996978759766,74.1781234741211,25.079999923706055,24.280000686645508,25.809999465942383,24.200000762939453,24.440000534057617,25.489999771118164,23.804357528686523,0.0,-0.16066670417785645,0.017167329788208008,-1.14393949508667,1777834816746667183
1777834816846796319,275.08770751953125,175.3435516357422,78.51639556884766,243.10440063476562,85.92996978759766,74.1781234741211,25.079999923706055,24.280000686645508,25.809999465942383,24.200000762939453,24.440000534057617,25.489999771118164,23.804357528686523,0.0,-0.16066670417785645,0.017167329788208008,-1.14393949508667,1777834816746667183
1777834816946567249,275.08770751953125,175.3435516357422,78.51639556884766,243.10440063476562,85.92996978759766,74.1781234741211,25.079999923706055,24.280000686645508,25.809999465942383,24.200000762939453,24.440000534057617,25.489999771118164,23.804357528686523,0.0,-0.16066670417785645,0.017167329788208008,-1.14393949508667,1777834816746667183
1777834817046553680,275.08770751953125,175.3435516357422,78.51639556884766,243.10440063476562,85.92996978759766,74.1781234741211,25.079999923706055,24.280000686645508,25.809999465942383,24.200000762939453,24.440000534057617,25.489999771118164,23.804357528686523,0.0,-0.16066670417785645,0.017167329788208008,-1.14393949508667,1777834816746667183
1777834817146966076,275.08770751953125,175.3435516357422,78.51639556884766,243.10440063476562,85.92996978759766,74.1781234741211,25.0,24.200000762939453,25.729999542236328,24.200000762939453,24.360000610351562,25.399999618530273,23.804357528686523,0.0,-0.16106367111206055,0.01396616268903017,-1.1426336765289307,1777834817109053026
1777834817246574025,275.08770751953125,175.3435516357422,78.51639556884766,243.10440063476562,85.92996978759766,74.1781234741211,25.0,24.200000762939453,25.729999542236328,24.200000762939453,24.360000610351562,25.399999618530273,23.804357528686523,0.0,-0.16106367111206055,0.01396616268903017,-1.1426336765289307,1777834817109053026
1777834817346562271,275.08770751953125,175.3435516357422,78.51639556884766,243.10440063476562,85.92996978759766,74.1781234741211,25.0,24.200000762939453,25.729999542236328,24.200000762939453,24.360000610351562,25.399999618530273,23.804357528686523,0.0,-0.16106367111206055,0.01396616268903017,-1.1426336765289307,1777834817109053026
1777834817446612758,275.08770751953125,175.3435516357422,78.51639556884766,243.10440063476562,85.92996978759766,74.1781234741211,25.079999923706055,24.280000686645508,25.729999542236328,24.280000686645508,24.440000534057617,25.399999618530273,23.804357528686523,0.0,-0.15944838523864746,0.01285354234278202,-1.1441901922225952,1777834817109053026
1777834817546577800,275.08770751953125,175.3435516357422,78.51639556884766,243.10440063476562,85.92996978759766,74.1781234741211,25.079999923706055,24.280000686645508,25.809999465942383,24.200000762939453,24.440000534057617,25.399999618530273,23.804357528686523,0.0,-0.16187548637390137,0.014569361694157124,-1.1425820589065552,1777834817509158622
1777834817647097122,275.08770751953125,175.3435516357422,78.51639556884766,243.10440063476562,85.92996978759766,74.1781234741211,25.079999923706055,24.280000686645508,25.809999465942383,24.200000762939453,24.440000534057617,25.399999618530273,23.804357528686523,0.0,-0.16187548637390137,0.014569361694157124,-1.1425820589065552,1777834817509158622
1777834817746640682,23.804357528686523,0.0,-0.16118207573890686,0.013621647842228413,-1.14271879196167,25.079999923706055,25.079999923706055,24.280000686645508,25.809999465942383,24.200000762939453,24.440000534057617,25.399999618530273,23.804357528686523,0.0,-0.16187548637390137,0.014569361694157124,-1.1425820589065552,1777834817709229671
1777834817846583946,23.804357528686523,0.0,-0.16118207573890686,0.013621647842228413,-1.14271879196167,25.079999923706055,25.079999923706055,24.1200008392334,25.809999465942383,24.280000686645508,24.520000457763672,25.489999771118164,23.804357528686523,0.0,-0.15977263450622559,0.012706120498478413,-1.1438361406326294,1777834817709229671
1777834817946559914,23.804357528686523,0.0,-0.16118207573890686,0.013621647842228413,-1.14271879196167,25.079999923706055,25.079999923706055,24.1200008392334,25.809999465942383,24.280000686645508,24.520000457763672,25.489999771118164,23.804357528686523,0.0,-0.15977263450622559,0.012706120498478413,-1.1438361406326294,1777834817709229671
1777834818046577679,275.08770751953125,175.3435516357422,78.51639556884766,243.10440063476562,85.92996978759766,74.1781234741211,25.0,24.280000686645508,25.809999465942383,24.200000762939453,24.440000534057617,25.399999618530273,23.804357528686523,0.0,-0.15895405411720276,0.014314651489257812,-1.1440503597259521,1777834817959393888
1777834818146890019,275.08770751953125,175.3435516357422,78.51639556884766,243.10440063476562,85.92996978759766,74.1781234741211,25.0,24.280000686645508,25.809999465942383,24.200000762939453,24.440000534057617,25.399999618530273,23.804357528686523,0.0,-0.15895405411720276,0.014314651489257812,-1.1440503597259521,1777834817959393888
1777834818246589449,275.08770751953125,175.3435516357422,78.51639556884766,243.10440063476562,85.92996978759766,74.1781234741211,74.1781234741211,0.0,0.0,0.0,0.0,0.0,275.08770751953125,175.3435516357422,78.51639556884766,243.10440063476562,85.92996978759766,1777834817959393888
1777834818346581158,23.804357528686523,0.0,-0.1620868742465973,0.013171831145882607,-1.1423683166503906,25.079999923706055,25.079999923706055,24.280000686645508,25.809999465942383,24.280000686645508,24.440000534057617,25.399999618530273,23.804357528686523,0.0,-0.16114512085914612,0.011773903854191303,-1.1439688205718994,1777834818309465111
1777834818446571719,23.804357528686523,0.0,-0.1620868742465973,0.013171831145882607,-1.1423683166503906,25.079999923706055,25.079999923706055,24.280000686645508,25.809999465942383,24.280000686645508,24.440000534057617,25.399999618530273,23.804357528686523,0.0,-0.16114512085914612,0.011773903854191303,-1.1439688205718994,1777834818309465111
1777834818546596965,23.804357528686523,0.0,-0.1620868742465973,0.013171831145882607,-1.1423683166503906,25.079999923706055,25.079999923706055,24.280000686645508,25.809999465942383,24.280000686645508,24.440000534057617,25.399999618530273,23.804357528686523,0.0,-0.16114512085914612,0.011773903854191303,-1.1439688205718994,1777834818309465111
1777834818646877639,23.804357528686523,0.0,-0.1620868742465973,0.013171831145882607,-1.1423683166503906,25.079999923706055,25.079999923706055,24.280000686645508,25.809999465942383,24.280000686645508,24.440000534057617,25.399999618530273,23.804357528686523,0.0,-0.16114512085914612,0.011773903854191303,-1.1439688205718994,1777834818309465111
1777834818746588458,23.804357528686523,0.0,-0.1607910692691803,0.011928478255867958,-1.1417261362075806,25.079999923706055,74.1781234741211,0.0,0.0,0.0,0.0,0.0,275.08770751953125,175.3435516357422,78.51639556884766,243.10440063476562,85.92996978759766,1777834818709621485
1777834818846743612,23.804357528686523,0.0,-0.1607910692691803,0.011928478255867958,-1.1417261362075806,25.079999923706055,25.0,24.200000762939453,25.809999465942383,24.200000762939453,24.440000534057617,25.399999618530273,23.804357528686523,0.0,-0.16075411438941956,0.011729796417057514,-1.1432607173919678,1777834818709621485
1777834818946593098,23.804357528686523,0.0,-0.1607910692691803,0.011928478255867958,-1.1417261362075806,25.079999923706055,25.0,24.200000762939453,25.809999465942383,24.200000762939453,24.440000534057617,25.399999618530273,23.804357528686523,0.0,-0.16075411438941956,0.011729796417057514,-1.1432607173919678,1777834818709621485
1777834819046613585,275.08770751953125,175.3435516357422,78.51639556884766,243.10440063476562,85.92996978759766,74.1781234741211,25.079999923706055,24.200000762939453,25.809999465942383,24.200000762939453,24.440000534057617,25.489999771118164,23.804033279418945,0.0,-0.16245484352111816,0.012824137695133686,-1.1423650979995728,1777834818949773129
1777834819146591442,275.08770751953125,175.3435516357422,78.51639556884766,243.10440063476562,85.92996978759766,74.1781234741211,25.079999923706055,24.200000762939453,25.809999465942383,24.200000762939453,24.440000534057617,25.489999771118164,23.804033279418945,0.0,-0.16245484352111816,0.012824137695133686,-1.1423650979995728,1777834818949773129
1777834819246590800,275.08770751953125,175.3435516357422,78.51639556884766,243.10440063476562,85.92996978759766,74.1781234741211,25.079999923706055,24.200000762939453,25.649999618530273,24.280000686645508,24.440000534057617,25.489999771118164,23.804033279418945,0.0,-0.16161003708839417,0.012634594924747944,-1.1434228420257568,1777834819156640239
1777834819346915973,275.08770751953125,175.3435516357422,78.51639556884766,243.10440063476562,85.92996978759766,74.1781234741211,25.079999923706055,24.200000762939453,25.649999618530273,24.280000686645508,24.440000534057617,25.489999771118164,23.804033279418945,0.0,-0.16161003708839417,0.012634594924747944,-1.1434228420257568,1777834819346093822
1777834819446613996,275.08770751953125,175.3435516357422,78.51639556884766,243.10440063476562,85.92996978759766,74.1781234741211,25.079999923706055,24.200000762939453,25.729999542236328,24.280000686645508,24.440000534057617,25.399999618530273,23.804033279418945,0.0,-0.15997529029846191,0.012958446517586708,-1.1435115337371826,1777834819346093822
1777834819546626094,275.08770751953125,175.3435516357422,78.51639556884766,243.10440063476562,85.92996978759766,74.1781234741211,25.079999923706055,24.200000762939453,25.729999542236328,24.280000686645508,24.440000534057617,25.399999618530273,23.804033279418945,0.0,-0.15997529029846191,0.012958446517586708,-1.1435115337371826,1777834819346093822
1777834819646592284,275.08770751953125,175.3435516357422,78.51639556884766,243.10440063476562,85.92996978759766,74.1781234741211,25.079999923706055,24.200000762939453,25.729999542236328,24.280000686645508,24.440000534057617,25.399999618530273,23.804033279418945,0.0,-0.15997529029846191,0.012958446517586708,-1.1435115337371826,1777834819346093822
1777834819746597160,275.08770751953125,175.3435516357422,78.51639556884766,243.10440063476562,85.92996978759766,74.1781234741211,25.079999923706055,24.200000762939453,25.729999542236328,24.280000686645508,24.440000534057617,25.399999618530273,23.804033279418945,0.0,-0.15997529029846191,0.012958446517586708,-1.1435115337371826,1777834819346093822
1777834819846827109,275.08770751953125,175.3435516357422,78.51639556884766,243.10440063476562,85.92996978759766,74.1781234741211,25.0,24.200000762939453,25.729999542236328,24.1200008392334,24.520000457763672,25.489999771118164,23.804033279418945,0.0,-0.16026218235492706,0.014425118453800678,-1.1429023742675781,1777834819773231538
1777834819946607085,275.08770751953125,175.3435516357422,78.51639556884766,243.10440063476562,85.92996978759766,74.1781234741211,25.0,24.280000686645508,25.809999465942383,24.280000686645508,24.440000534057617,25.489999771118164,23.804033279418945,0.0,-0.16019582748413086,0.015430450439453125,-1.1433271169662476,1777834819916718644
1777834820046606321,275.08770751953125,175.3435516357422,78.51639556884766,243.10440063476562,85.92996978759766,74.1781234741211,25.0,24.280000686645508,25.809999465942383,24.280000686645508,24.440000534057617,25.489999771118164,23.804033279418945,0.0,-0.16019582748413086,0.015430450439453125,-1.1433271169662476,1777834819916718644
1777834820146595743,23.804033279418945,0.0,-0.16004164516925812,0.012847979553043842,-1.1456290483474731,25.0,25.0,24.280000686645508,25.809999465942383,24.280000686645508,24.440000534057617,25.489999771118164,23.804033279418945,0.0,-0.16019582748413086,0.015430450439453125,-1.1433271169662476,1777834820116782784
1777834820246613091,23.804033279418945,0.0,-0.16004164516925812,0.012847979553043842,-1.1456290483474731,25.0,25.079999923706055,24.200000762939453,25.809999465942383,24.280000686645508,24.440000534057617,25.399999618530273,23.804033279418945,0.0,-0.16068020462989807,0.013053019531071186,-1.143439531326294,1777834820116782784
1777834820346834680,275.08770751953125,175.3435516357422,78.51639556884766,243.10440063476562,85.92996978759766,74.1781234741211,25.079999923706055,24.200000762939453,25.809999465942383,24.280000686645508,24.440000534057617,25.399999618530273,23.804033279418945,0.0,-0.16068020462989807,0.013053019531071186,-1.143439531326294,1777834820340167047
1777834820446602027,275.08770751953125,175.3435516357422,78.51639556884766,243.10440063476562,85.92996978759766,74.1781234741211,25.079999923706055,24.200000762939453,25.729999542236328,24.280000686645508,24.360000610351562,25.489999771118164,23.804033279418945,0.0,-0.16098260879516602,0.013651450164616108,-1.142943263053894,1777834820340167047
1777834820546605189,275.08770751953125,175.3435516357422,78.51639556884766,243.10440063476562,85.92996978759766,74.1781234741211,25.079999923706055,24.200000762939453,25.729999542236328,24.280000686645508,24.360000610351562,25.489999771118164,23.804033279418945,0.0,-0.16098260879516602,0.013651450164616108,-1.142943263053894,1777834820545192958
1777834820646610148,275.08770751953125,175.3435516357422,78.51639556884766,243.10440063476562,85.92996978759766,74.1781234741211,25.0,24.280000686645508,25.809999465942383,24.200000762939453,24.520000457763672,25.489999771118164,23.804033279418945,0.0,-0.1609094887971878,0.01468022633343935,-1.1437780857086182,1777834820545192958
1777834820746624440,275.08770751953125,175.3435516357422,78.51639556884766,243.10440063476562,85.92996978759766,74.1781234741211,25.0,24.280000686645508,25.809999465942383,24.200000762939453,24.520000457763672,25.489999771118164,23.804033279418945,0.0,-0.1609094887971878,0.01468022633343935,-1.1437780857086182,1777834820545192958
1777834820846625158,275.08770751953125,175.3435516357422,78.51639556884766,243.10440063476562,85.92996978759766,74.1781234741211,25.0,24.280000686645508,25.889999389648438,24.200000762939453,24.440000534057617,25.489999771118164,23.804033279418945,0.0,-0.16040721535682678,0.009290376678109169,-1.144219994544983,1777834820786096328
1777834820946642154,275.08770751953125,175.3435516357422,78.51639556884766,243.10440063476562,85.92996978759766,74.1781234741211,25.0,24.280000686645508,25.889999389648438,24.200000762939453,24.440000534057617,25.489999771118164,23.804033279418945,0.0,-0.16040721535682678,0.009290376678109169,-1.144219994544983,1777834820786096328
1777834821046634890,275.08770751953125,175.3435516357422,78.51639556884766,243.10440063476562,85.92996978759766,74.1781234741211,25.079999923706055,24.280000686645508,25.809999465942383,24.200000762939453,24.440000534057617,25.399999618530273,23.804033279418945,0.0,-0.15915313363075256,0.012531677260994911,-1.1443746089935303,1777834820963610516
1777834821146610757,275.08770751953125,175.3435516357422,78.51639556884766,243.10440063476562,85.92996978759766,74.1781234741211,25.079999923706055,24.280000686645508,25.809999465942383,24.200000762939453,24.440000534057617,25.399999618530273,23.804033279418945,0.0,-0.15915313363075256,0.012531677260994911,-1.1443746089935303,1777834820963610516
1777834821246635197,275.08770751953125,175.3435516357422,78.51639556884766,243.10440063476562,85.92996978759766,74.1781234741211,25.079999923706055,24.280000686645508,25.809999465942383,24.200000762939453,24.440000534057617,25.399999618530273,23.804033279418945,0.0,-0.15915313363075256,0.012531677260994911,-1.1443746089935303,1777834820963610516
1777834821346618230,275.08770751953125,175.3435516357422,78.51639556884766,243.10440063476562,85.92996978759766,74.1781234741211,25.079999923706055,24.280000686645508,25.809999465942383,24.200000762939453,24.440000534057617,25.399999618530273,23.804033279418945,0.0,-0.15915313363075256,0.012531677260994911,-1.1443746089935303,1777834820963610516
1777834821446632077,275.08770751953125,175.3435516357422,78.51639556884766,243.10440063476562,85.92996978759766,74.1781234741211,25.079999923706055,24.280000686645508,25.809999465942383,24.200000762939453,24.440000534057617,25.399999618530273,23.804033279418945,0.0,-0.15915313363075256,0.012531677260994911,-1.1443746089935303,1777834820963610516
1777834821546647462,23.804033279418945,0.0,-0.15997925400733948,0.013657410629093647,-1.1419693231582642,25.0,74.1781234741211,0.0,0.0,0.0,0.0,0.0,275.08770751953125,175.3435516357422,78.51639556884766,243.10440063476562,85.92996978759766,1777834821524763866
1777834821646632995,23.804033279418945,0.0,-0.15997925400733948,0.013657410629093647,-1.1419693231582642,25.0,74.1781234741211,0.0,0.0,0.0,0.0,0.0,275.08770751953125,175.3435516357422,78.51639556884766,243.10440063476562,85.92996978759766,1777834821524763866
1777834821746623491,23.804033279418945,0.0,-0.15867312252521515,0.01516540814191103,-1.1440129280090332,25.0,25.079999923706055,24.280000686645508,25.729999542236328,24.200000762939453,24.440000534057617,25.489999771118164,23.804033279418945,0.0,-0.1592930108308792,0.011744499206542969,-1.1436147689819336,1777834821724837710
1777834821846622727,23.804033279418945,0.0,-0.15867312252521515,0.01516540814191103,-1.1440129280090332,25.0,25.079999923706055,24.280000686645508,25.729999542236328,24.200000762939453,24.440000534057617,25.489999771118164,23.804033279418945,0.0,-0.1592930108308792,0.011744499206542969,-1.1436147689819336,1777834821724837710
1777834821946656001,23.804033279418945,0.0,-0.15926361083984375,0.010832150466740131,-1.1433935165405273,25.079999923706055,25.079999923706055,24.280000686645508,25.729999542236328,24.200000762939453,24.440000534057617,25.489999771118164,23.804033279418945,0.0,-0.1592930108308792,0.011744499206542969,-1.1436147689819336,1777834821924877091
1777834822046645293,23.804033279418945,0.0,-0.15926361083984375,0.010832150466740131,-1.1433935165405273,25.079999923706055,25.079999923706055,24.280000686645508,25.729999542236328,24.280000686645508,24.440000534057617,25.489999771118164,23.804033279418945,0.0,-0.1608796864748001,0.01021265983581543,-1.1428403854370117,1777834821924877091
1777834822146639307,23.804033279418945,0.0,-0.15926361083984375,0.010832150466740131,-1.1433935165405273,25.079999923706055,25.079999923706055,24.280000686645508,25.729999542236328,24.280000686645508,24.440000534057617,25.489999771118164,23.804033279418945,0.0,-0.1608796864748001,0.01021265983581543,-1.1428403854370117,1777834821924877091
1777834822246622451,23.804033279418945,0.0,-0.15926361083984375,0.010832150466740131,-1.1433935165405273,25.079999923706055,25.079999923706055,24.280000686645508,25.729999542236328,24.280000686645508,24.440000534057617,25.489999771118164,23.804033279418945,0.0,-0.1608796864748001,0.01021265983581543,-1.1428403854370117,1777834821924877091
1777834822346646132,23.804033279418945,0.0,-0.15926361083984375,0.010832150466740131,-1.1433935165405273,25.079999923706055,25.079999923706055,24.280000686645508,25.729999542236328,24.280000686645508,24.440000534057617,25.489999771118164,23.804033279418945,0.0,-0.1608796864748001,0.01021265983581543,-1.1428403854370117,1777834821924877091
1777834822446640165,23.804033279418945,0.0,-0.15926361083984375,0.010832150466740131,-1.1433935165405273,25.079999923706055,25.079999923706055,24.280000686645508,25.729999542236328,24.280000686645508,24.440000534057617,25.489999771118164,23.804033279418945,0.0,-0.1608796864748001,0.01021265983581543,-1.1428403854370117,1777834821924877091
1777834822546693032,23.804033279418945,0.0,-0.15926361083984375,0.010832150466740131,-1.1433935165405273,25.079999923706055,25.079999923706055,24.280000686645508,25.729999542236328,24.280000686645508,24.440000534057617,25.489999771118164,23.804033279418945,0.0,-0.1608796864748001,0.01021265983581543,-1.1428403854370117,1777834821924877091
1777834822646638120,23.804033279418945,0.0,-0.15926361083984375,0.010832150466740131,-1.1433935165405273,25.079999923706055,25.079999923706055,24.280000686645508,25.729999542236328,24.280000686645508,24.440000534057617,25.489999771118164,23.804033279418945,0.0,-0.1608796864748001,0.01021265983581543,-1.1428403854370117,1777834821924877091
1777834822746641134,23.804033279418945,0.0,-0.1617487221956253,0.012619495391845703,-1.1429023742675781,25.079999923706055,74.1781234741211,0.0,0.0,0.0,0.0,0.0,275.08770751953125,175.3434600830078,78.51639556884766,243.10440063476562,85.92996978759766,1777834822740741246
1777834822846641759,23.804033279418945,0.0,-0.1617487221956253,0.012619495391845703,-1.1429023742675781,25.079999923706055,74.1781234741211,0.0,0.0,0.0,0.0,0.0,275.08770751953125,175.3434600830078,78.51639556884766,243.10440063476562,85.92996978759766,1777834822740741246
1777834822946655829,23.804033279418945,0.0,-0.1605621874332428,0.01446207333356142,-1.142181158065796,25.079999923706055,74.1781234741211,0.0,0.0,0.0,0.0,0.0,275.08770751953125,175.3434600830078,78.51639556884766,243.10440063476562,85.92996978759766,1777834822940823479
1777834823046642066,23.804033279418945,0.0,-0.1605621874332428,0.01446207333356142,-1.142181158065796,25.079999923706055,74.1781234741211,0.0,0.0,0.0,0.0,0.0,275.08770751953125,175.3434600830078,78.51639556884766,243.10440063476562,85.92996978759766,1777834822940823479
1777834823146642728,23.804033279418945,0.0,-0.15927830338478088,0.015207529067993164,-1.1439473628997803,25.0,74.1781234741211,0.0,0.0,0.0,0.0,0.0,275.08770751953125,175.3434600830078,78.51639556884766,243.10440063476562,85.92996978759766,1777834823140909305
1777834823246663354,23.804033279418945,0.0,-0.15927830338478088,0.015207529067993164,-1.1439473628997803,25.0,74.1781234741211,0.0,0.0,0.0,0.0,0.0,275.08770751953125,175.3434600830078,78.51639556884766,243.10440063476562,85.92996978759766,1777834823140909305
1777834823346645276,23.804033279418945,0.0,-0.15823085606098175,0.012647310271859169,-1.1445728540420532,25.079999923706055,25.079999923706055,24.280000686645508,25.809999465942383,24.200000762939453,24.360000610351562,25.489999771118164,23.804033279418945,0.0,-0.15972495079040527,0.01294215489178896,-1.1446166038513184,1777834823340955963
1777834823446655438,23.804033279418945,0.0,-0.15823085606098175,0.012647310271859169,-1.1445728540420532,25.079999923706055,25.079999923706055,24.280000686645508,25.809999465942383,24.200000762939453,24.360000610351562,25.489999771118164,23.804033279418945,0.0,-0.15972495079040527,0.01294215489178896,-1.1446166038513184,1777834823340955963
1777834823546668175,23.804033279418945,0.0,-0.15881259739398956,0.014547904022037983,-1.1426925659179688,25.079999923706055,25.079999923706055,24.1200008392334,25.809999465942383,24.200000762939453,24.440000534057617,25.399999618530273,23.804033279418945,0.0,-0.16011197865009308,0.013916492462158203,-1.144256591796875,1777834823540998566
1777834823646650578,23.804033279418945,0.0,-0.15881259739398956,0.014547904022037983,-1.1426925659179688,25.079999923706055,25.079999923706055,24.1200008392334,25.809999465942383,24.200000762939453,24.440000534057617,25.399999618530273,23.804033279418945,0.0,-0.16011197865009308,0.013916492462158203,-1.144256591796875,1777834823540998566
1777834823746668851,23.804033279418945,0.0,-0.1607036590576172,0.013260046020150185,-1.1435941457748413,25.079999923706055,25.079999923706055,24.1200008392334,25.809999465942383,24.200000762939453,24.440000534057617,25.399999618530273,23.804033279418945,0.0,-0.16011197865009308,0.013916492462158203,-1.144256591796875,1777834823741101447
1777834823846679273,23.804033279418945,0.0,-0.1607036590576172,0.013260046020150185,-1.1435941457748413,25.079999923706055,25.0,24.200000762939453,25.809999465942383,24.200000762939453,24.440000534057617,25.489999771118164,23.803611755371094,0.0,-0.1605490744113922,0.015003681182861328,-1.1428511142730713,1777834823741101447
1777834823946684251,23.804033279418945,0.0,-0.1607036590576172,0.013260046020150185,-1.1435941457748413,25.079999923706055,25.0,24.200000762939453,25.809999465942383,24.200000762939453,24.440000534057617,25.489999771118164,23.803611755371094,0.0,-0.1605490744113922,0.015003681182861328,-1.1428511142730713,1777834823741101447
1777834824046654468,275.08770751953125,175.3434600830078,78.51639556884766,243.10440063476562,85.92996978759766,74.1781234741211,25.079999923706055,24.200000762939453,25.729999542236328,24.1200008392334,24.440000534057617,25.56999969482422,23.803611755371094,0.0,-0.16005316376686096,0.014727512374520302,-1.1431745290756226,1777834823980275788
1777834824146726372,275.08770751953125,175.3434600830078,78.51639556884766,243.10440063476562,85.92996978759766,74.1781234741211,25.079999923706055,24.200000762939453,25.729999542236328,24.1200008392334,24.440000534057617,25.56999969482422,23.803611755371094,0.0,-0.16005316376686096,0.014727512374520302,-1.1431745290756226,1777834823980275788
1777834824246658275,275.08770751953125,175.3434600830078,78.51639556884766,243.10440063476562,85.92996978759766,74.1781234741211,25.079999923706055,24.280000686645508,25.809999465942383,24.200000762939453,24.520000457763672,25.489999771118164,23.803611755371094,0.0,-0.16040006279945374,0.015620389953255653,-1.1435190439224243,1777834824166817679
1777834824346671512,275.08770751953125,175.3434600830078,78.51639556884766,243.10440063476562,85.92996978759766,74.1781234741211,25.079999923706055,24.280000686645508,25.809999465942383,24.200000762939453,24.520000457763672,25.489999771118164,23.803611755371094,0.0,-0.16040006279945374,0.015620389953255653,-1.1435190439224243,1777834824166817679
1777834824446664007,275.08770751953125,175.3434600830078,78.51639556884766,243.10440063476562,85.92996978759766,74.1781234741211,25.0,24.200000762939453,25.809999465942383,24.200000762939453,24.440000534057617,25.399999618530273,23.803611755371094,0.0,-0.159489706158638,0.014437039382755756,-1.1427958011627197,1777834824358072525
1777834824546683874,275.08770751953125,175.3434600830078,78.51639556884766,243.10440063476562,85.92996978759766,74.1781234741211,25.0,24.200000762939453,25.809999465942383,24.200000762939453,24.440000534057617,25.399999618530273,23.803611755371094,0.0,-0.159489706158638,0.014437039382755756,-1.1427958011627197,1777834824358072525
1777834824646664036,275.08770751953125,175.3434600830078,78.51639556884766,243.10440063476562,85.92996978759766,74.1781234741211,25.0,24.1200008392334,25.809999465942383,24.200000762939453,24.520000457763672,25.399999618530273,23.803611755371094,0.0,-0.16051054000854492,0.01362880039960146,-1.144866943359375,1777834824579347998
1777834824746674773,275.08770751953125,175.3434600830078,78.51639556884766,243.10440063476562,85.92996978759766,74.1781234741211,25.0,24.1200008392334,25.809999465942383,24.200000762939453,24.520000457763672,25.399999618530273,23.803611755371094,0.0,-0.16051054000854492,0.01362880039960146,-1.144866943359375,1777834824579347998
1777834824846680417,275.08770751953125,175.3434600830078,78.51639556884766,243.10440063476562,85.92996978759766,74.1781234741211,25.0,24.1200008392334,25.809999465942383,24.200000762939453,24.520000457763672,25.399999618530273,23.803611755371094,0.0,-0.16051054000854492,0.01362880039960146,-1.144866943359375,1777834824774315144
1777834824946677709,23.803611755371094,0.0,-0.1602991372346878,0.013083219528198242,-1.1439688205718994,25.0,25.0,24.1200008392334,25.809999465942383,24.200000762939453,24.520000457763672,25.399999618530273,23.803611755371094,0.0,-0.16051054000854492,0.01362880039960146,-1.144866943359375,1777834824941469788
1777834825046687779,23.803611755371094,0.0,-0.1602991372346878,0.013083219528198242,-1.1439688205718994,25.0,25.079999923706055,24.200000762939453,25.809999465942383,24.280000686645508,24.440000534057617,25.489999771118164,23.803611755371094,0.0,-0.16260583698749542,0.01504500675946474,-1.1405161619186401,1777834824941469788
1777834825146665719,23.803611755371094,0.0,-0.1602991372346878,0.013083219528198242,-1.1439688205718994,25.0,25.079999923706055,24.200000762939453,25.809999465942383,24.280000686645508,24.440000534057617,25.489999771118164,23.803611755371094,0.0,-0.16260583698749542,0.01504500675946474,-1.1405161619186401,1777834824941469788
1777834825246678918,275.08770751953125,175.3434600830078,78.51639556884766,243.10440063476562,85.92996978759766,74.1781234741211,25.079999923706055,24.280000686645508,25.809999465942383,24.280000686645508,24.440000534057617,25.399999618530273,23.803611755371094,0.0,-0.15927115082740784,0.012418428435921669,-1.1442346572875977,1777834825165611982
1777834825346688710,275.08770751953125,175.3434600830078,78.51639556884766,243.10440063476562,85.92996978759766,74.1781234741211,25.079999923706055,24.280000686645508,25.809999465942383,24.280000686645508,24.440000534057617,25.399999618530273,23.803611755371094,0.0,-0.15927115082740784,0.012418428435921669,-1.1442346572875977,1777834825165611982
1777834825446686706,275.08770751953125,175.3434600830078,78.51639556884766,243.10440063476562,85.92996978759766,74.1781234741211,25.079999923706055,24.280000686645508,25.809999465942383,24.280000686645508,24.440000534057617,25.489999771118164,23.803611755371094,0.0,-0.16014456748962402,0.01270095445215702,-1.1439028978347778,1777834825371601750
1777834825546686961,275.08770751953125,175.3434600830078,78.51639556884766,243.10440063476562,85.92996978759766,74.1781234741211,25.079999923706055,24.280000686645508,25.809999465942383,24.280000686645508,24.440000534057617,25.489999771118164,23.803611755371094,0.0,-0.16014456748962402,0.01270095445215702,-1.1439028978347778,1777834825371601750
1777834825646696050,275.08770751953125,175.3434600830078,78.51639556884766,243.10440063476562,85.92996978759766,74.1781234741211,25.079999923706055,24.200000762939453,25.809999465942383,24.280000686645508,24.440000534057617,25.489999771118164,23.803611755371094,0.0,-0.16084232926368713,0.015996694564819336,-1.1427072286605835,1777834825603547992
1777834825746749750,275.08770751953125,175.3434600830078,78.51639556884766,243.10440063476562,85.92996978759766,74.1781234741211,25.079999923706055,24.200000762939453,25.809999465942383,24.280000686645508,24.440000534057617,25.489999771118164,23.803611755371094,0.0,-0.16084232926368713,0.015996694564819336,-1.1427072286605835,1777834825603547992
1777834825846684615,275.08770751953125,175.3434600830078,78.51639556884766,243.10440063476562,85.92996978759766,74.1781234741211,25.079999923706055,24.200000762939453,25.809999465942383,24.200000762939453,24.440000534057617,25.489999771118164,23.803611755371094,0.0,-0.16064365208148956,0.012573798187077045,-1.1420730352401733,1777834825767724766
1777834825946689648,275.08770751953125,175.3434600830078,78.51639556884766,243.10440063476562,85.92996978759766,74.1781234741211,25.079999923706055,24.200000762939453,25.809999465942383,24.200000762939453,24.440000534057617,25.489999771118164,23.803611755371094,0.0,-0.16064365208148956,0.012573798187077045,-1.1420730352401733,1777834825767724766
1777834826046693477,275.08770751953125,175.3434600830078,78.51639556884766,243.10440063476562,85.92996978759766,74.1781234741211,25.079999923706055,24.200000762939453,25.809999465942383,24.280000686645508,24.440000534057617,25.489999771118164,23.803611755371094,0.0,-0.1601243019104004,0.016337234526872635,-1.1432901620864868,1777834825969071469
1777834826146690029,275.08770751953125,175.3434600830078,78.51639556884766,243.10440063476562,85.92996978759766,74.1781234741211,25.079999923706055,24.200000762939453,25.809999465942383,24.280000686645508,24.440000534057617,25.489999771118164,23.803611755371094,0.0,-0.1601243019104004,0.016337234526872635,-1.1432901620864868,1777834825969071469
1777834826246700562,275.08770751953125,175.3434600830078,78.51639556884766,243.10440063476562,85.92996978759766,74.1781234741211,25.0,24.280000686645508,25.809999465942383,24.200000762939453,24.440000534057617,25.399999618530273,23.803611755371094,0.0,-0.1605125218629837,0.011510848999023438,-1.1412615776062012,1777834826169392648
1777834826346702854,275.08770751953125,175.3434600830078,78.51639556884766,243.10440063476562,85.92996978759766,74.1781234741211,25.0,24.280000686645508,25.809999465942383,24.200000762939453,24.440000534057617,25.399999618530273,23.803611755371094,0.0,-0.1605125218629837,0.011510848999023438,-1.1412615776062012,1777834826169392648
1777834826446706998,275.08770751953125,175.3434600830078,78.51639556884766,243.10440063476562,85.92996978759766,74.1781234741211,25.0,24.280000686645508,25.809999465942383,24.200000762939453,24.440000534057617,25.399999618530273,23.803611755371094,0.0,-0.1605125218629837,0.011510848999023438,-1.1412615776062012,1777834826169392648
1777834826546700586,23.803611755371094,0.0,-0.15983939170837402,0.01308242417871952,-1.1426154375076294,25.079999923706055,74.1781234741211,0.0,0.0,0.0,0.0,0.0,275.08770751953125,175.3434600830078,78.51639556884766,243.10440063476562,85.92996978759766,1777834826542009650
1777834826646701508,23.803611755371094,0.0,-0.15983939170837402,0.01308242417871952,-1.1426154375076294,25.079999923706055,25.0,24.200000762939453,25.729999542236328,24.200000762939453,24.440000534057617,25.489999771118164,23.803611755371094,0.0,-0.16043145954608917,0.012538829818367958,-1.1433441638946533,1777834826542009650
1777834826746702948,23.803611755371094,0.0,-0.15983939170837402,0.01308242417871952,-1.1426154375076294,25.079999923706055,25.0,24.200000762939453,25.729999542236328,24.200000762939453,24.440000534057617,25.489999771118164,23.803611755371094,0.0,-0.16043145954608917,0.012538829818367958,-1.1433441638946533,1777834826542009650
1777834826846710944,275.08770751953125,175.3434600830078,78.51639556884766,243.10440063476562,85.92996978759766,74.1781234741211,25.0,24.280000686645508,25.889999389648438,24.280000686645508,24.360000610351562,25.56999969482422,23.803611755371094,0.0,-0.1604882776737213,0.013318458572030067,-1.1427147388458252,1777834826776520129
1777834826946712421,275.08770751953125,175.3434600830078,78.51639556884766,243.10440063476562,85.92996978759766,74.1781234741211,25.0,24.280000686645508,25.889999389648438,24.280000686645508,24.360000610351562,25.56999969482422,23.803611755371094,0.0,-0.1604882776737213,0.013318458572030067,-1.1427147388458252,1777834826776520129
1777834827046721695,275.08770751953125,175.3434600830078,78.51639556884766,243.10440063476562,85.92996978759766,74.1781234741211,25.079999923706055,24.200000762939453,25.889999389648438,24.280000686645508,24.440000534057617,25.489999771118164,23.803611755371094,0.0,-0.16054034233093262,0.014100869186222553,-1.1433048248291016,1777834826970920846
1777834827146727746,275.08770751953125,175.3434600830078,78.51639556884766,243.10440063476562,85.92996978759766,74.1781234741211,25.079999923706055,24.200000762939453,25.889999389648438,24.280000686645508,24.440000534057617,25.489999771118164,23.803611755371094,0.0,-0.16054034233093262,0.014100869186222553,-1.1433048248291016,1777834826970920846
1777834827246713242,275.08770751953125,175.3434600830078,78.51639556884766,243.10440063476562,85.92996978759766,74.1781234741211,25.079999923706055,24.200000762939453,25.889999389648438,24.280000686645508,24.440000534057617,25.489999771118164,23.803611755371094,0.0,-0.16054034233093262,0.014100869186222553,-1.1433048248291016,1777834827166940573
1777834827346765664,23.803611755371094,0.0,-0.15996456146240234,0.012568632140755653,-1.1437181234359741,25.079999923706055,25.079999923706055,24.200000762939453,25.889999389648438,24.280000686645508,24.440000534057617,25.489999771118164,23.803611755371094,0.0,-0.16054034233093262,0.014100869186222553,-1.1433048248291016,1777834827342251600
1777834827446723808,23.803611755371094,0.0,-0.15996456146240234,0.012568632140755653,-1.1437181234359741,25.079999923706055,25.079999923706055,24.200000762939453,25.809999465942383,24.200000762939453,24.440000534057617,25.489999771118164,23.803611755371094,0.0,-0.16018827259540558,0.013502836227416992,-1.1441460847854614,1777834827342251600
1777834827546718896,23.803611755371094,0.0,-0.15996456146240234,0.012568632140755653,-1.1437181234359741,25.079999923706055,25.079999923706055,24.200000762939453,25.809999465942383,24.200000762939453,24.440000534057617,25.489999771118164,23.803611755371094,0.0,-0.16018827259540558,0.013502836227416992,-1.1441460847854614,1777834827342251600
1777834827646891171,275.08770751953125,175.3434600830078,78.51639556884766,243.10440063476562,85.92996978759766,74.1781234741211,25.079999923706055,24.280000686645508,25.809999465942383,24.280000686645508,24.440000534057617,25.489999771118164,23.803611755371094,0.0,-0.1588495522737503,0.01150369644165039,-1.1425566673278809,1777834827562829327
1777834827746741240,275.08770751953125,175.3434600830078,78.51639556884766,243.10440063476562,85.92996978759766,74.1781234741211,25.079999923706055,24.280000686645508,25.809999465942383,24.280000686645508,24.440000534057617,25.489999771118164,23.803611755371094,0.0,-0.1588495522737503,0.01150369644165039,-1.1425566673278809,1777834827562829327
1777834827846727921,275.08770751953125,175.3435516357422,78.51639556884766,243.10440063476562,85.92996978759766,74.1781234741211,25.079999923706055,24.280000686645508,25.809999465942383,24.280000686645508,24.440000534057617,25.489999771118164,23.803611755371094,0.0,-0.1588495522737503,0.01150369644165039,-1.1425566673278809,1777834827821282155
1777834827947174382,275.08770751953125,175.3435516357422,78.51639556884766,243.10440063476562,85.92996978759766,74.1781234741211,25.0,24.280000686645508,25.809999465942383,24.280000686645508,24.440000534057617,25.489999771118164,23.803611755371094,0.0,-0.16030390560626984,0.014764864929020405,-1.1439025402069092,1777834827821282155
1777834828046738079,275.08770751953125,175.3435516357422,78.51639556884766,243.10440063476562,85.92996978759766,74.1781234741211,25.079999923706055,24.280000686645508,25.809999465942383,24.280000686645508,24.360000610351562,25.399999618530273,23.803611755371094,0.0,-0.16076166927814484,0.014248291030526161,-1.143275499343872,1777834828009547335
1777834828146907687,275.08770751953125,175.3435516357422,78.51639556884766,243.10440063476562,85.92996978759766,74.1781234741211,25.079999923706055,24.280000686645508,25.809999465942383,24.280000686645508,24.360000610351562,25.399999618530273,23.803611755371094,0.0,-0.16076166927814484,0.014248291030526161,-1.143275499343872,1777834828009547335
1777834828246718126,275.08770751953125,175.3435516357422,78.51639556884766,243.10440063476562,85.92996978759766,74.1781234741211,25.079999923706055,24.200000762939453,25.889999389648438,24.280000686645508,24.440000534057617,25.489999771118164,23.803611755371094,0.0,-0.15962520241737366,0.012384255416691303,-1.143408179283142,1777834828164543109
1777834828346731566,275.08770751953125,175.3435516357422,78.51639556884766,243.10440063476562,85.92996978759766,74.1781234741211,25.079999923706055,24.200000762939453,25.889999389648438,24.280000686645508,24.440000534057617,25.489999771118164,23.803611755371094,0.0,-0.15962520241737366,0.012384255416691303,-1.143408179283142,1777834828164543109
1777834828447240065,275.08770751953125,175.3434600830078,78.51639556884766,243.10440063476562,85.92996978759766,74.1781234741211,25.079999923706055,24.280000686645508,25.809999465942383,24.280000686645508,24.440000534057617,25.399999618530273,23.803611755371094,0.0,-0.16025224328041077,0.01298666000366211,-1.143273115158081,1777834828402869574
1777834828546761299,275.08770751953125,175.3434600830078,78.51639556884766,243.10440063476562,85.92996978759766,74.1781234741211,25.079999923706055,24.280000686645508,25.809999465942383,24.280000686645508,24.440000534057617,25.399999618530273,23.803611755371094,0.0,-0.16025224328041077,0.01298666000366211,-1.143273115158081,1777834828402869574
1777834828646719961,275.08770751953125,175.3434600830078,78.51639556884766,243.10440063476562,85.92996978759766,74.1781234741211,25.079999923706055,24.280000686645508,25.809999465942383,24.200000762939453,24.440000534057617,25.489999771118164,23.803611755371094,0.0,-0.15927115082740784,0.01157522201538086,-1.1444119215011597,1777834828585411533
1777834828746804809,275.08770751953125,175.3434600830078,78.51639556884766,243.10440063476562,85.92996978759766,74.1781234741211,25.079999923706055,24.280000686645508,25.809999465942383,24.200000762939453,24.440000534057617,25.489999771118164,23.803611755371094,0.0,-0.15927115082740784,0.01157522201538086,-1.1444119215011597,1777834828585411533
1777834828846740564,275.08770751953125,175.3434600830078,78.51639556884766,243.10440063476562,85.92996978759766,74.1781234741211,25.079999923706055,24.280000686645508,25.809999465942383,24.200000762939453,24.440000534057617,25.489999771118164,23.803611755371094,0.0,-0.15927115082740784,0.01157522201538086,-1.1444119215011597,1777834828776449396
1777834828947124895,275.08770751953125,175.3434600830078,78.51639556884766,243.10440063476562,85.92996978759766,74.1781234741211,25.079999923706055,24.280000686645508,25.809999465942383,24.200000762939453,24.440000534057617,25.399999618530273,23.804035186767578,0.0,-0.16068020462989807,0.01334071159362793,-1.1426377296447754,1777834828776449396
1777834829046736092,275.08770751953125,175.3434600830078,78.51639556884766,243.10440063476562,85.92996978759766,74.1781234741211,25.079999923706055,24.280000686645508,25.809999465942383,24.200000762939453,24.440000534057617,25.399999618530273,23.804035186767578,0.0,-0.16068020462989807,0.01334071159362793,-1.1426377296447754,1777834828972553587
1777834829147037812,275.08770751953125,175.3434600830078,78.51639556884766,243.10440063476562,85.92996978759766,74.1781234741211,25.079999923706055,24.280000686645508,25.809999465942383,24.200000762939453,24.440000534057617,25.399999618530273,23.804035186767578,0.0,-0.16068020462989807,0.01334071159362793,-1.1426377296447754,1777834828972553587
1777834829246729973,23.804035186767578,0.0,-0.15998680889606476,0.011663833633065224,-1.1431351900100708,25.079999923706055,74.1781234741211,0.0,0.0,0.0,0.0,0.0,275.08770751953125,175.3434600830078,78.51639556884766,243.10440063476562,85.92996978759766,1777834829189364217
1777834829346757710,23.804035186767578,0.0,-0.1609094887971878,0.013038714416325092,-1.1429023742675781,25.079999923706055,74.1781234741211,0.0,0.0,0.0,0.0,0.0,275.08770751953125,175.3434600830078,78.51639556884766,243.10440063476562,85.92996978759766,1777834829342838445
1777834829447051837,23.804035186767578,0.0,-0.1609094887971878,0.013038714416325092,-1.1429023742675781,25.079999923706055,25.079999923706055,24.280000686645508,25.889999389648438,24.280000686645508,24.440000534057617,25.489999771118164,23.804035186767578,0.0,-0.15979130566120148,0.012950897216796875,-1.1435202360153198,1777834829342838445
1777834829546745590,23.804035186767578,0.0,-0.1609094887971878,0.013038714416325092,-1.1429023742675781,25.079999923706055,25.079999923706055,24.280000686645508,25.889999389648438,24.280000686645508,24.440000534057617,25.489999771118164,23.804035186767578,0.0,-0.15979130566120148,0.012950897216796875,-1.1435202360153198,1777834829342838445
1777834829646932717,275.08770751953125,175.3434600830078,78.51639556884766,243.10440063476562,85.92996978759766,74.1781234741211,25.0,24.280000686645508,25.729999542236328,24.280000686645508,24.440000534057617,25.489999771118164,23.804035186767578,0.0,-0.16059160232543945,0.01235922146588564,-1.1436740159988403,1777834829582315695
1777834829746745804,275.08770751953125,175.3434600830078,78.51639556884766,243.10440063476562,85.92996978759766,74.1781234741211,25.0,24.280000686645508,25.729999542236328,24.280000686645508,24.440000534057617,25.489999771118164,23.804035186767578,0.0,-0.16059160232543945,0.01235922146588564,-1.1436740159988403,1777834829582315695
1777834829846755337,275.08770751953125,175.3434600830078,78.51639556884766,243.10440063476562,85.92996978759766,74.1781234741211,25.0,24.280000686645508,25.729999542236328,24.280000686645508,24.440000534057617,25.489999771118164,23.804035186767578,0.0,-0.16059160232543945,0.01235922146588564,-1.1436740159988403,1777834829818003773
1777834829946745925,275.08770751953125,175.3434600830078,78.51639556884766,243.10440063476562,85.92996978759766,74.1781234741211,25.079999923706055,24.280000686645508,25.809999465942383,24.280000686645508,24.360000610351562,25.399999618530273,23.804035186767578,0.0,-0.15964427590370178,0.012477238662540913,-1.1443448066711426,1777834829818003773
1777834830046748384,275.0877990722656,175.3434600830078,78.51639556884766,243.10440063476562,85.92996978759766,74.1781234741211,25.079999923706055,24.200000762939453,25.809999465942383,24.280000686645508,24.520000457763672,25.489999771118164,23.804035186767578,0.0,-0.1606372892856598,0.013936758041381836,-1.1429245471954346,1777834829973698348
1777834830147017104,275.0877990722656,175.3434600830078,78.51639556884766,243.10440063476562,85.92996978759766,74.1781234741211,25.079999923706055,24.200000762939453,25.809999465942383,24.280000686645508,24.520000457763672,25.489999771118164,23.804035186767578,0.0,-0.1606372892856598,0.013936758041381836,-1.1429245471954346,1777834829973698348
1777834830246757450,275.08770751953125,175.3434600830078,78.51639556884766,243.10440063476562,85.92996978759766,74.1781234741211,25.079999923706055,24.280000686645508,25.809999465942383,24.280000686645508,24.440000534057617,25.56999969482422,23.804035186767578,0.0,-0.16084988415241241,0.015524625778198242,-1.140923023223877,1777834830167512654
1777834830346756334,275.08770751953125,175.3434600830078,78.51639556884766,243.10440063476562,85.92996978759766,74.1781234741211,25.079999923706055,24.280000686645508,25.809999465942383,24.280000686645508,24.440000534057617,25.56999969482422,23.804035186767578,0.0,-0.16084988415241241,0.015524625778198242,-1.140923023223877,1777834830167512654
1777834830446754626,275.08770751953125,175.3435516357422,78.51639556884766,243.10440063476562,85.92996978759766,74.1781234741211,25.079999923706055,24.200000762939453,25.809999465942383,24.280000686645508,24.520000457763672,25.489999771118164,23.804035186767578,0.0,-0.16143202781677246,0.012001991271972656,-1.1419693231582642,1777834830373934407
1777834830546809641,275.08770751953125,175.3435516357422,78.51639556884766,243.10440063476562,85.92996978759766,74.1781234741211,25.079999923706055,24.200000762939453,25.809999465942383,24.280000686645508,24.520000457763672,25.489999771118164,23.804035186767578,0.0,-0.16143202781677246,0.012001991271972656,-1.1419693231582642,1777834830373934407
1777834830646988397,275.08770751953125,175.3435516357422,78.51639556884766,243.10440063476562,85.92996978759766,74.1781234741211,25.079999923706055,24.280000686645508,25.809999465942383,24.280000686645508,24.520000457763672,25.399999618530273,23.804035186767578,0.0,-0.1614026129245758,0.011297066695988178,-1.1431057453155518,1777834830582406302
1777834830746777095,275.08770751953125,175.3435516357422,78.51639556884766,243.10440063476562,85.92996978759766,74.1781234741211,25.079999923706055,24.280000686645508,25.809999465942383,24.280000686645508,24.520000457763672,25.399999618530273,23.804035186767578,0.0,-0.1614026129245758,0.011297066695988178,-1.1431057453155518,1777834830582406302
1777834830846759999,275.0876159667969,175.3435516357422,78.51639556884766,243.10440063476562,85.92996978759766,74.1781234741211,25.079999923706055,24.280000686645508,25.729999542236328,24.280000686645508,24.440000534057617,25.489999771118164,23.804035186767578,0.0,-0.1612555980682373,0.014949241653084755,-1.1435941457748413,1777834830769660049
1777834830946766976,275.0876159667969,175.3435516357422,78.51639556884766,243.10440063476562,85.92996978759766,74.1781234741211,25.079999923706055,24.280000686645508,25.729999542236328,24.280000686645508,24.440000534057617,25.489999771118164,23.804035186767578,0.0,-0.1612555980682373,0.014949241653084755,-1.1435941457748413,1777834830769660049
1777834831046756675,275.08770751953125,175.3434600830078,78.51639556884766,243.10440063476562,85.92996978759766,74.1781234741211,25.0,24.280000686645508,25.809999465942383,24.280000686645508,24.440000534057617,25.489999771118164,23.804035186767578,0.0,-0.16071119904518127,0.01586437225341797,-1.1411654949188232,1777834830966823949
1777834831146991802,275.08770751953125,175.3434600830078,78.51639556884766,243.10440063476562,85.92996978759766,74.1781234741211,25.0,24.280000686645508,25.809999465942383,24.280000686645508,24.440000534057617,25.489999771118164,23.804035186767578,0.0,-0.16071119904518127,0.01586437225341797,-1.1411654949188232,1777834830966823949
1777834831246770889,275.08770751953125,175.3435516357422,78.51639556884766,243.10440063476562,85.92996978759766,74.1781234741211,25.079999923706055,24.280000686645508,25.889999389648438,24.280000686645508,24.440000534057617,25.56999969482422,23.804035186767578,0.0,-0.16045887768268585,0.010759035125374794,-1.1427406072616577,1777834831192619246
1777834831346765533,275.08770751953125,175.3435516357422,78.51639556884766,243.10440063476562,85.92996978759766,74.1781234741211,25.079999923706055,24.280000686645508,25.889999389648438,24.280000686645508,24.440000534057617,25.56999969482422,23.804035186767578,0.0,-0.16045887768268585,0.010759035125374794,-1.1427406072616577,1777834831192619246
1777834831446771862,275.08770751953125,175.3435516357422,78.51639556884766,243.10440063476562,85.92996978759766,74.1781234741211,25.079999923706055,24.280000686645508,25.889999389648438,24.280000686645508,24.440000534057617,25.56999969482422,23.804035186767578,0.0,-0.16045887768268585,0.010759035125374794,-1.1427406072616577,1777834831192619246
1777834831546769043,275.08770751953125,175.3435516357422,78.51639556884766,243.10440063476562,85.92996978759766,74.1781234741211,25.079999923706055,24.280000686645508,25.889999389648438,24.280000686645508,24.440000534057617,25.56999969482422,23.804035186767578,0.0,-0.16045887768268585,0.010759035125374794,-1.1427406072616577,1777834831192619246
1777834831646769465,275.08770751953125,175.3435516357422,78.51639556884766,243.10440063476562,85.92996978759766,74.1781234741211,25.079999923706055,24.280000686645508,25.889999389648438,24.280000686645508,24.440000534057617,25.56999969482422,23.804035186767578,0.0,-0.16045887768268585,0.010759035125374794,-1.1427406072616577,1777834831192619246
1777834831746771702,275.08770751953125,175.3435516357422,78.51639556884766,243.10440063476562,85.92996978759766,74.1781234741211,74.1781234741211,0.0,0.0,0.0,0.0,0.0,275.08770751953125,175.3434600830078,78.51629638671875,243.10440063476562,85.92996978759766,1777834831192619246
1777834831846778753,23.804035186767578,0.0,-0.16043901443481445,0.014106035232543945,-1.1416149139404297,25.079999923706055,74.1781234741211,0.0,0.0,0.0,0.0,0.0,275.08770751953125,175.3435516357422,78.51639556884766,243.10440063476562,85.92996978759766,1777834831748699676
1777834831946767212,23.804035186767578,0.0,-0.16043901443481445,0.014106035232543945,-1.1416149139404297,25.079999923706055,74.1781234741211,0.0,0.0,0.0,0.0,0.0,275.08770751953125,175.3435516357422,78.51639556884766,243.10440063476562,85.92996978759766,1777834831748699676
1777834832046779430,23.804035186767578,0.0,-0.16098260879516602,0.015562772750854492,-1.1411511898040771,25.079999923706055,25.079999923706055,24.200000762939453,25.809999465942383,24.200000762939453,24.440000534057617,25.489999771118164,23.804035186767578,0.0,-0.15964427590370178,0.009558995254337788,-1.1417253017425537,1777834831948816280
1777834832146874630,23.804035186767578,0.0,-0.16098260879516602,0.015562772750854492,-1.1411511898040771,25.079999923706055,25.079999923706055,24.200000762939453,25.809999465942383,24.200000762939453,24.440000534057617,25.489999771118164,23.804035186767578,0.0,-0.15964427590370178,0.009558995254337788,-1.1417253017425537,1777834831948816280
1777834832246781107,23.804035186767578,0.0,-0.15903353691101074,0.00997145939618349,-1.1448616981506348,25.079999923706055,25.079999923706055,24.280000686645508,25.889999389648438,24.280000686645508,24.440000534057617,25.489999771118164,23.804035186767578,0.0,-0.15971064567565918,0.010618765838444233,-1.1432039737701416,1777834832148898253
1777834832346778917,23.804035186767578,0.0,-0.15903353691101074,0.00997145939618349,-1.1448616981506348,25.079999923706055,25.079999923706055,24.280000686645508,25.889999389648438,24.280000686645508,24.440000534057617,25.489999771118164,23.804035186767578,0.0,-0.15971064567565918,0.010618765838444233,-1.1432039737701416,1777834832148898253
1777834832446772468,23.804035186767578,0.0,-0.15903353691101074,0.00997145939618349,-1.1448616981506348,25.079999923706055,25.079999923706055,24.280000686645508,25.889999389648438,24.280000686645508,24.440000534057617,25.489999771118164,23.804035186767578,0.0,-0.15971064567565918,0.010618765838444233,-1.1432039737701416,1777834832148898253
1777834832546774705,23.804035186767578,0.0,-0.15903353691101074,0.00997145939618349,-1.1448616981506348,25.079999923706055,74.1781234741211,0.0,0.0,0.0,0.0,0.0,275.08770751953125,175.3434600830078,78.51639556884766,243.10440063476562,85.92996978759766,1777834832148898253
1777834832646806831,23.804035186767578,0.0,-0.15801072120666504,0.008191267028450966,-1.1441755294799805,25.079999923706055,74.1781234741211,0.0,0.0,0.0,0.0,0.0,275.08770751953125,175.3434600830078,78.51639556884766,243.10440063476562,85.92996978759766,1777834832580176741
1777834832746794049,23.804035186767578,0.0,-0.15801072120666504,0.008191267028450966,-1.1441755294799805,25.079999923706055,74.1781234741211,0.0,0.0,0.0,0.0,0.0,275.08770751953125,175.3434600830078,78.51639556884766,243.10440063476562,85.92996978759766,1777834832580176741
1777834832846780267,23.804035186767578,0.0,-0.16099770367145538,0.013304153457283974,-1.1423531770706177,25.079999923706055,74.1781234741211,0.0,0.0,0.0,0.0,0.0,275.08770751953125,175.3434600830078,78.51639556884766,243.10440063476562,85.92996978759766,1777834832749069711
1777834832946805651,23.804035186767578,0.0,-0.16099770367145538,0.013304153457283974,-1.1423531770706177,25.079999923706055,74.1781234741211,0.0,0.0,0.0,0.0,0.0,275.08770751953125,175.3434600830078,78.51639556884766,243.10440063476562,85.92996978759766,1777834832749069711
1777834833046785406,23.804035186767578,0.0,-0.15969593822956085,0.014322200790047646,-1.1435941457748413,25.0,74.1781234741211,0.0,0.0,0.0,0.0,0.0,275.08770751953125,175.3434600830078,78.51639556884766,243.10440063476562,85.92996978759766,1777834832984942290
1777834833146785624,23.804035186767578,0.0,-0.15969593822956085,0.014322200790047646,-1.1435941457748413,25.0,74.1781234741211,0.0,0.0,0.0,0.0,0.0,275.08770751953125,175.3434600830078,78.51639556884766,243.10440063476562,85.92996978759766,1777834832984942290
1777834833246803398,23.804035186767578,0.0,-0.16067424416542053,0.014238357543945312,-1.142336130142212,25.079999923706055,74.1781234741211,0.0,0.0,0.0,0.0,0.0,275.08770751953125,175.3434600830078,78.51639556884766,243.10440063476562,85.92996978759766,1777834833167011580
1777834833346811042,23.804035186767578,0.0,-0.16067424416542053,0.014238357543945312,-1.142336130142212,25.079999923706055,74.1781234741211,0.0,0.0,0.0,0.0,0.0,275.08770751953125,175.3434600830078,78.51639556884766,243.10440063476562,85.92996978759766,1777834833167011580
1777834833446794260,23.804035186767578,0.0,-0.1602891981601715,0.008904138579964638,-1.1435115337371826,25.0,74.1781234741211,0.0,0.0,0.0,0.0,0.0,275.08770751953125,175.3434600830078,78.51639556884766,243.10440063476562,85.92996978759766,1777834833349310891
1777834833546793589,23.804035186767578,0.0,-0.1602891981601715,0.008904138579964638,-1.1435115337371826,25.0,74.1781234741211,0.0,0.0,0.0,0.0,0.0,275.08770751953125,175.3434600830078,78.51639556884766,243.10440063476562,85.92996978759766,1777834833349310891
1777834833646799529,23.804035186767578,0.0,-0.16008853912353516,0.00978708267211914,-1.1435647010803223,25.079999923706055,25.079999923706055,24.280000686645508,25.809999465942383,24.280000686645508,24.520000457763672,25.399999618530273,23.804035186767578,0.0,-0.16019582748413086,0.012406507506966591,-1.1429023742675781,1777834833558370122
1777834833746872377,23.804035186767578,0.0,-0.16008853912353516,0.00978708267211914,-1.1435647010803223,25.079999923706055,25.079999923706055,24.280000686645508,25.809999465942383,24.280000686645508,24.520000457763672,25.399999618530273,23.804035186767578,0.0,-0.16019582748413086,0.012406507506966591,-1.1429023742675781,1777834833558370122
1777834833846853095,275.08770751953125,175.3434600830078,78.51639556884766,243.10440063476562,85.92996978759766,74.1781234741211,25.0,24.280000686645508,25.729999542236328,24.200000762939453,24.440000534057617,25.489999771118164,23.80368423461914,0.0,-0.16154327988624573,0.013229846954345703,-1.1431232690811157,1777834833767594096
1777834833946802665,275.08770751953125,175.3434600830078,78.51639556884766,243.10440063476562,85.92996978759766,74.1781234741211,25.0,24.280000686645508,25.729999542236328,24.200000762939453,24.440000534057617,25.489999771118164,23.80368423461914,0.0,-0.16154327988624573,0.013229846954345703,-1.1431232690811157,1777834833767594096
1777834834046835698,275.08770751953125,175.3434600830078,78.51639556884766,243.10440063476562,85.92996978759766,74.1781234741211,25.0,24.280000686645508,25.809999465942383,24.200000762939453,24.440000534057617,25.399999618530273,23.80368423461914,0.0,-0.160593181848526,0.0130462646484375,-1.1447361707687378,1777834834005486021
1777834834146820694,275.08770751953125,175.3434600830078,78.51639556884766,243.10440063476562,85.92996978759766,74.1781234741211,25.0,24.280000686645508,25.809999465942383,24.200000762939453,24.440000534057617,25.399999618530273,23.80368423461914,0.0,-0.160593181848526,0.0130462646484375,-1.1447361707687378,1777834834005486021
1777834834246809782,275.08770751953125,175.3434600830078,78.51639556884766,243.10440063476562,85.92996978759766,74.1781234741211,25.079999923706055,24.200000762939453,25.889999389648438,24.200000762939453,24.520000457763672,25.489999771118164,23.80368423461914,0.0,-0.16045887768268585,0.011887152679264545,-1.1421982049942017,1777834834170787080
1777834834346813130,275.08770751953125,175.3434600830078,78.51639556884766,243.10440063476562,85.92996978759766,74.1781234741211,25.079999923706055,24.200000762939453,25.889999389648438,24.200000762939453,24.520000457763672,25.489999771118164,23.80368423461914,0.0,-0.16045887768268585,0.011887152679264545,-1.1421982049942017,1777834834170787080
1777834834446817866,275.08770751953125,175.3434600830078,78.51639556884766,243.10440063476562,85.92996978759766,74.1781234741211,25.0,24.200000762939453,25.809999465942383,24.280000686645508,24.520000457763672,25.489999771118164,23.80368423461914,0.0,-0.1600678712129593,0.013392766006290913,-1.142483115196228,1777834834387781730
1777834834546821251,275.08770751953125,175.3434600830078,78.51639556884766,243.10440063476562,85.92996978759766,74.1781234741211,25.0,24.200000762939453,25.809999465942383,24.280000686645508,24.520000457763672,25.489999771118164,23.80368423461914,0.0,-0.1600678712129593,0.013392766006290913,-1.142483115196228,1777834834387781730
1777834834646811913,275.08770751953125,175.3434600830078,78.51639556884766,243.10440063476562,85.92996978759766,74.1781234741211,25.079999923706055,24.280000686645508,25.889999389648438,24.280000686645508,24.360000610351562,25.56999969482422,23.80368423461914,0.0,-0.16068775951862335,0.016594329848885536,-1.142943263053894,1777834834574658457
1777834834746824002,275.08770751953125,175.3434600830078,78.51639556884766,243.10440063476562,85.92996978759766,74.1781234741211,25.079999923706055,24.280000686645508,25.889999389648438,24.280000686645508,24.360000610351562,25.56999969482422,23.80368423461914,0.0,-0.16068775951862335,0.016594329848885536,-1.142943263053894,1777834834574658457
1777834834846824257,275.08770751953125,175.3434600830078,78.51639556884766,243.10440063476562,85.92996978759766,74.1781234741211,25.079999923706055,24.280000686645508,25.889999389648438,24.280000686645508,24.360000610351562,25.56999969482422,23.80368423461914,0.0,-0.16068775951862335,0.016594329848885536,-1.142943263053894,1777834834574658457
1777834834946847012,275.08770751953125,175.3434600830078,78.51639556884766,243.10440063476562,85.92996978759766,74.1781234741211,25.079999923706055,24.280000686645508,25.729999542236328,24.280000686645508,24.520000457763672,25.489999771118164,23.80368423461914,0.0,-0.1613295078277588,0.01321554183959961,-1.1420507431030273,1777834834847041499
1777834835046811823,275.08770751953125,175.3434600830078,78.51639556884766,243.10440063476562,85.92996978759766,74.1781234741211,25.0,24.280000686645508,25.889999389648438,24.280000686645508,24.520000457763672,25.489999771118164,23.80368423461914,0.0,-0.16039252281188965,0.013930797576904297,-1.1442489624023438,1777834834985699618
1777834835146835319,275.08770751953125,175.3434600830078,78.51639556884766,243.10440063476562,85.92996978759766,74.1781234741211,25.0,24.280000686645508,25.889999389648438,24.280000686645508,24.520000457763672,25.489999771118164,23.80368423461914,0.0,-0.16039252281188965,0.013930797576904297,-1.1442489624023438,1777834834985699618
1777834835246823499,275.08770751953125,175.3434600830078,78.51639556884766,243.10440063476562,85.92996978759766,74.1781234741211,25.0,24.200000762939453,25.809999465942383,24.280000686645508,24.520000457763672,25.489999771118164,23.80368423461914,0.0,-0.15982826054096222,0.01430471707135439,-1.1421982049942017,1777834835182237182
1777834835346871366,275.08770751953125,175.3434600830078,78.51639556884766,243.10440063476562,85.92996978759766,74.1781234741211,25.0,24.200000762939453,25.809999465942383,24.280000686645508,24.520000457763672,25.489999771118164,23.80368423461914,0.0,-0.15982826054096222,0.01430471707135439,-1.1421982049942017,1777834835182237182
1777834835446817139,275.08770751953125,175.3434600830078,78.51639556884766,243.10440063476562,85.92996978759766,74.1781234741211,25.0,24.200000762939453,25.809999465942383,24.360000610351562,24.520000457763672,25.489999771118164,23.80368423461914,0.0,-0.1610199511051178,0.01586437225341797,-1.1429214477539062,1777834835372164519
1777834835546865450,275.08770751953125,175.3434600830078,78.51639556884766,243.10440063476562,85.92996978759766,74.1781234741211,25.0,24.200000762939453,25.809999465942383,24.360000610351562,24.520000457763672,25.489999771118164,23.80368423461914,0.0,-0.1610199511051178,0.01586437225341797,-1.1429214477539062,1777834835372164519
1777834835646840575,275.08770751953125,175.3434600830078,78.51639556884766,243.10440063476562,85.92996978759766,74.1781234741211,25.079999923706055,24.280000686645508,25.729999542236328,24.280000686645508,24.440000534057617,25.56999969482422,23.80368423461914,0.0,-0.1611006259918213,0.014717181213200092,-1.1430422067642212,1777834835565156506
1777834835746831867,275.08770751953125,175.3434600830078,78.51639556884766,243.10440063476562,85.92996978759766,74.1781234741211,25.079999923706055,24.280000686645508,25.729999542236328,24.280000686645508,24.440000534057617,25.56999969482422,23.80368423461914,0.0,-0.1611006259918213,0.014717181213200092,-1.1430422067642212,1777834835565156506
1777834835846835697,275.08770751953125,175.3434600830078,78.51639556884766,243.10440063476562,85.92996978759766,74.1781234741211,25.0,24.280000686645508,25.809999465942383,24.200000762939453,24.520000457763672,25.489999771118164,23.80368423461914,0.0,-0.16091704368591309,0.013267596252262592,-1.1422944068908691,1777834835760411246
1777834835946830637,275.08770751953125,175.3434600830078,78.51639556884766,243.10440063476562,85.92996978759766,74.1781234741211,25.0,24.280000686645508,25.809999465942383,24.200000762939453,24.520000457763672,25.489999771118164,23.80368423461914,0.0,-0.16091704368591309,0.013267596252262592,-1.1422944068908691,1777834835760411246
1777834836046850188,275.08770751953125,175.3434600830078,78.51639556884766,243.10440063476562,85.92996978759766,74.1781234741211,25.079999923706055,24.280000686645508,25.809999465942383,24.280000686645508,24.520000457763672,25.399999618530273,23.80368423461914,0.0,-0.15997529029846191,0.016004640609025955,-1.1428478956222534,1777834835974446749
1777834836146836591,275.08770751953125,175.3434600830078,78.51639556884766,243.10440063476562,85.92996978759766,74.1781234741211,25.079999923706055,24.280000686645508,25.809999465942383,24.280000686645508,24.520000457763672,25.399999618530273,23.80368423461914,0.0,-0.15997529029846191,0.016004640609025955,-1.1428478956222534,1777834835974446749
1777834836246858291,275.08770751953125,175.3434600830078,78.51639556884766,243.10440063476562,85.92996978759766,74.1781234741211,25.079999923706055,24.280000686645508,25.809999465942383,24.280000686645508,24.520000457763672,25.399999618530273,23.80368423461914,0.0,-0.15997529029846191,0.016004640609025955,-1.1428478956222534,1777834836204503534
