timestamp_ns,joint_1_pos,joint_2_pos,joint_3_pos,joint_4_pos,joint_5_pos,joint_6_pos,joint_1_temp,joint_2_temp,joint_3_temp,joint_4_temp,joint_5_temp,joint_6_temp,bus_voltage,bus_current,accel_x,accel_y,accel_z,timestamp_ns
1777838698500803549,23.823009490966797,0.0,-0.15755215287208557,-0.005727211479097605,-1.1413136720657349,27.260000228881836,27.260000228881836,26.450000762939453,29.670000076293945,27.979999542236328,30.0,31.040000915527344,23.823009490966797,0.0,-0.1583576202392578,-0.0021441776771098375,-1.1399272680282593,1777838698495071423
1777838698600805543,23.823009490966797,0.0,-0.157700777053833,-0.0041071572341024876,-1.1397159099578857,27.34000015258789,27.260000228881836,26.450000762939453,29.760000228881836,27.979999542236328,30.0,30.959999084472656,23.823009490966797,0.0,-0.15794038772583008,-0.0032258033752441406,-1.140481948852539,1777838698595104380
1777838698700540314,23.823009490966797,0.0,-0.1576618254184723,-0.0031888484954833984,-1.1395502090454102,27.34000015258789,27.260000228881836,26.450000762939453,29.670000076293945,27.979999542236328,30.0,31.040000915527344,23.823009490966797,0.0,-0.16017913818359375,-0.003705819370225072,-1.140489101409912,1777838698695152763
1777838698800234789,23.823009490966797,0.0,-0.15826940536499023,-0.003968477249145508,-1.140581727027893,27.34000015258789,27.34000015258789,26.530000686645508,29.760000228881836,28.059999465942383,30.0,30.959999084472656,23.823009490966797,0.0,-0.1576642096042633,-0.0020400681532919407,-1.1393725872039795,1777838698795218738
1777838698899884338,23.823009490966797,0.0,-0.15848159790039062,-0.0015091896057128906,-1.141920804977417,27.260000228881836,74.83976745605469,0.0,0.0,0.0,0.0,0.0,23.823009490966797,0.0,78.68885803222656,243.10183715820312,84.30823516845703,1777838698895293510
1777838699000676575,23.823009490966797,0.0,-0.15661318600177765,-0.0025383629836142063,-1.1401207447052002,27.260000228881836,27.260000228881836,26.450000762939453,29.84000015258789,27.979999542236328,30.0,30.959999084472656,23.823009490966797,0.0,-0.15642523765563965,-0.0027573108673095703,-1.141547679901123,1777838698995340708
1777838699100370420,23.823009490966797,0.0,-0.15725532174110413,-0.003569523338228464,-1.1402554512023926,27.260000228881836,27.34000015258789,26.450000762939453,29.670000076293945,27.979999542236328,30.0,31.040000915527344,23.824722290039062,0.0,-0.15694180130958557,-0.0025526680983603,-1.1403257846832275,1777838699095412128
1777838699200029116,23.823009490966797,0.0,-0.15725532174110413,-0.003569523338228464,-1.1402554512023926,27.260000228881836,27.34000015258789,26.450000762939453,29.670000076293945,27.979999542236328,30.0,31.040000915527344,23.824722290039062,0.0,-0.15694180130958557,-0.0025526680983603,-1.1403257846832275,1777838699095412128
1777838699300820131,279.0318603515625,175.0592803955078,78.68875885009766,243.10183715820312,84.30823516845703,74.83976745605469,27.34000015258789,26.450000762939453,29.670000076293945,27.979999542236328,30.0,31.040000915527344,23.824722290039062,0.0,-0.15702524781227112,-0.0015604496002197266,-1.1420289278030396,1777838699295546246
1777838699400517754,279.0318603515625,175.0592803955078,78.68875885009766,243.10183715820312,84.30823516845703,74.83976745605469,27.34000015258789,26.450000762939453,29.670000076293945,27.979999542236328,30.0,31.040000915527344,23.824722290039062,0.0,-0.15702524781227112,-0.0015604496002197266,-1.1420289278030396,1777838699295546246
1777838699500234303,279.0318603515625,175.0592803955078,78.68875885009766,243.10183715820312,84.30823516845703,74.83976745605469,27.260000228881836,26.450000762939453,29.760000228881836,27.979999542236328,30.0,31.040000915527344,23.824722290039062,0.0,-0.15777388215065002,-0.006493330001831055,-1.1419192552566528,1777838699495660735
1777838699599872203,279.0318603515625,175.0592803955078,78.68875885009766,243.10183715820312,84.30823516845703,74.83976745605469,27.260000228881836,26.450000762939453,29.760000228881836,27.979999542236328,30.0,31.040000915527344,23.824722290039062,0.0,-0.15777388215065002,-0.006493330001831055,-1.1419192552566528,1777838699495660735
1777838699700667699,23.824722290039062,0.0,-0.15747427940368652,-0.0012028217315673828,-1.1398720741271973,27.260000228881836,27.260000228881836,26.450000762939453,29.760000228881836,27.979999542236328,30.0,31.040000915527344,23.824722290039062,0.0,-0.15777388215065002,-0.006493330001831055,-1.1419192552566528,1777838699611483790
1777838699800347229,23.824722290039062,0.0,-0.15795588493347168,-0.0032389163970947266,-1.1428356170654297,27.34000015258789,27.260000228881836,26.450000762939453,29.760000228881836,27.979999542236328,30.0,31.040000915527344,23.824722290039062,0.0,-0.15777388215065002,-0.006493330001831055,-1.1419192552566528,1777838699711479395
1777838699900004130,23.824722290039062,0.0,-0.15761294960975647,-0.0030930836219340563,-1.142923355102539,27.260000228881836,27.260000228881836,26.450000762939453,29.760000228881836,27.979999542236328,30.0,31.040000915527344,23.824722290039062,0.0,-0.15777388215065002,-0.006493330001831055,-1.1419192552566528,1777838699811473260
1777838700000759255,279.0318603515625,175.0592803955078,78.68875885009766,243.10183715820312,84.30823516845703,74.83976745605469,27.34000015258789,26.530000686645508,29.760000228881836,27.899999618530273,30.0,30.959999084472656,23.824722290039062,0.0,-0.15835046768188477,-0.0030342736281454563,-1.1403257846832275,1777838699995940057
1777838700100511323,279.0318603515625,175.0592803955078,78.68875885009766,243.10183715820312,84.30823516845703,74.83976745605469,27.34000015258789,26.530000686645508,29.760000228881836,27.899999618530273,30.0,30.959999084472656,23.824722290039062,0.0,-0.15835046768188477,-0.0030342736281454563,-1.1403257846832275,1777838699995940057
1777838700200190038,23.824722290039062,0.0,-0.15692313015460968,-0.0063037872314453125,-1.1402407884597778,27.260000228881836,27.34000015258789,26.530000686645508,29.760000228881836,27.899999618530273,30.0,30.959999084472656,23.824722290039062,0.0,-0.15835046768188477,-0.0030342736281454563,-1.1403257846832275,1777838700111480464
1777838700299834383,23.824722290039062,0.0,-0.15692313015460968,-0.0063037872314453125,-1.1402407884597778,27.260000228881836,27.34000015258789,26.530000686645508,29.760000228881836,27.899999618530273,30.0,30.959999084472656,23.824722290039062,0.0,-0.15835046768188477,-0.0030342736281454563,-1.1403257846832275,1777838700111480464
1777838700400653787,23.824722290039062,0.0,-0.15692313015460968,-0.0063037872314453125,-1.1402407884597778,27.260000228881836,27.34000015258789,26.530000686645508,29.760000228881836,27.899999618530273,30.0,30.959999084472656,23.824722290039062,0.0,-0.15835046768188477,-0.0030342736281454563,-1.1403257846832275,1777838700111480464
1777838700500315206,23.824722290039062,0.0,-0.15725214779376984,-0.001740058185532689,-1.141196846961975,27.260000228881836,74.83976745605469,0.0,0.0,0.0,0.0,0.0,23.824722290039062,0.0,78.68875885009766,243.10183715820312,84.30823516845703,1777838700496266769
1777838700599959791,23.824722290039062,0.0,-0.15802064538002014,-0.0025522708892822266,-1.1414233446121216,27.260000228881836,74.83976745605469,0.0,0.0,0.0,0.0,0.0,23.824722290039062,0.0,78.68875885009766,243.10183715820312,84.30823516845703,1777838700596349689
1777838700700755621,23.824722290039062,0.0,-0.15792568027973175,-0.0012203056830912828,-1.1421624422073364,27.260000228881836,27.260000228881836,26.450000762939453,29.670000076293945,27.979999542236328,30.079999923706055,31.040000915527344,23.824722290039062,0.0,-0.1582181453704834,-0.0027060508728027344,-1.1426782608032227,1777838700696414424
1777838700800519799,23.824722290039062,0.0,-0.15792568027973175,-0.0012203056830912828,-1.1421624422073364,27.260000228881836,27.260000228881836,26.450000762939453,29.670000076293945,27.979999542236328,30.079999923706055,31.040000915527344,23.824722290039062,0.0,-0.1582181453704834,-0.0027060508728027344,-1.1426782608032227,1777838700696414424
1777838700900162737,23.824722290039062,0.0,-0.15792568027973175,-0.0012203056830912828,-1.1421624422073364,27.260000228881836,27.260000228881836,26.450000762939453,29.670000076293945,27.979999542236328,30.079999923706055,31.040000915527344,23.824722290039062,0.0,-0.1582181453704834,-0.0027060508728027344,-1.1426782608032227,1777838700696414424
1777838700999831767,23.824722290039062,0.0,-0.15774965286254883,-0.0012536842841655016,-1.1422137022018433,27.34000015258789,74.83976745605469,0.0,0.0,0.0,0.0,0.0,23.824722290039062,0.0,78.68875885009766,243.10183715820312,84.30823516845703,1777838700996719018
1777838701100597874,23.824722290039062,0.0,-0.15856225788593292,-0.0026766457594931126,-1.139664649963379,27.34000015258789,74.83976745605469,0.0,0.0,0.0,0.0,0.0,23.824722290039062,0.0,78.68875885009766,243.10183715820312,84.30823516845703,1777838701096780475
1777838701200326923,23.824722290039062,0.0,-0.15664973855018616,-0.0037713844794780016,-1.1419339179992676,27.34000015258789,27.260000228881836,26.450000762939453,29.760000228881836,27.979999542236328,30.0,30.959999084472656,23.824722290039062,0.0,-0.15790501236915588,-0.0012175241718068719,-1.1401867866516113,1777838701196845969
1777838701299954712,23.824722290039062,0.0,-0.15804369747638702,-0.0008086363086476922,-1.1389497518539429,27.260000228881836,27.34000015258789,26.3700008392334,29.670000076293945,27.899999618530273,30.0,31.040000915527344,23.824722290039062,0.0,-0.15847444534301758,-0.005427996162325144,-1.138343334197998,1777838701296898389
1777838701400714134,23.824722290039062,0.0,-0.15804369747638702,-0.0008086363086476922,-1.1389497518539429,27.260000228881836,27.34000015258789,26.3700008392334,29.670000076293945,27.899999618530273,30.0,31.040000915527344,23.824722290039062,0.0,-0.15847444534301758,-0.005427996162325144,-1.138343334197998,1777838701296898389
1777838701500447313,23.824722290039062,0.0,-0.1582622528076172,-0.005749861244112253,-1.1378157138824463,27.260000228881836,27.34000015258789,26.3700008392334,29.670000076293945,27.899999618530273,30.0,31.040000915527344,23.824722290039062,0.0,-0.15847444534301758,-0.005427996162325144,-1.138343334197998,1777838701412484314
1777838701600078972,23.824722290039062,0.0,-0.15750367939472198,-0.001806020736694336,-1.141343116760254,27.260000228881836,27.34000015258789,26.3700008392334,29.670000076293945,27.899999618530273,30.0,31.040000915527344,23.824722290039062,0.0,-0.15847444534301758,-0.005427996162325144,-1.138343334197998,1777838701512475827
1777838701699779392,23.824722290039062,0.0,-0.158649280667305,-0.003063678741455078,-1.1407665014266968,27.34000015258789,27.34000015258789,26.3700008392334,29.670000076293945,27.899999618530273,30.0,31.040000915527344,23.824722290039062,0.0,-0.15847444534301758,-0.005427996162325144,-1.138343334197998,1777838701612484617
1777838701800556980,23.824722290039062,0.0,-0.1577516347169876,-0.003311634063720703,-1.1415401697158813,27.260000228881836,27.34000015258789,26.3700008392334,29.670000076293945,27.899999618530273,30.0,31.040000915527344,23.824722290039062,0.0,-0.15847444534301758,-0.005427996162325144,-1.138343334197998,1777838701712474111
1777838701900285696,23.824722290039062,0.0,-0.15720446407794952,-0.001981655601412058,-1.1417372226715088,27.34000015258789,27.34000015258789,26.3700008392334,29.670000076293945,27.899999618530273,30.0,31.040000915527344,23.824722290039062,0.0,-0.15847444534301758,-0.005427996162325144,-1.138343334197998,1777838701812481272
1777838701999916837,23.824722290039062,0.0,-0.1571897566318512,-0.002530813217163086,-1.1400548219680786,27.34000015258789,27.34000015258789,26.3700008392334,29.670000076293945,27.899999618530273,30.0,31.040000915527344,23.824722290039062,0.0,-0.15847444534301758,-0.005427996162325144,-1.138343334197998,1777838701912477173
1777838702100695074,23.824722290039062,0.0,-0.1588173657655716,-0.005661646369844675,-1.1383072137832642,27.260000228881836,27.34000015258789,26.3700008392334,29.670000076293945,27.899999618530273,30.0,31.040000915527344,23.824722290039062,0.0,-0.15847444534301758,-0.005427996162325144,-1.138343334197998,1777838702012482149
1777838702200419382,23.824722290039062,0.0,-0.15710949897766113,-0.004275242332369089,-1.1431307792663574,27.34000015258789,27.34000015258789,26.3700008392334,29.670000076293945,27.899999618530273,30.0,31.040000915527344,23.824722290039062,0.0,-0.15847444534301758,-0.005427996162325144,-1.138343334197998,1777838702112486106
1777838702300049356,23.824722290039062,0.0,-0.15710949897766113,-0.004275242332369089,-1.1431307792663574,27.34000015258789,27.34000015258789,26.3700008392334,29.670000076293945,27.899999618530273,30.0,31.040000915527344,23.824722290039062,0.0,-0.15847444534301758,-0.005427996162325144,-1.138343334197998,1777838702112486106
1777838702400825538,23.824722290039062,0.0,-0.1577206403017044,-0.0015676021575927734,-1.1433112621307373,27.34000015258789,74.83976745605469,0.0,0.0,0.0,0.0,0.0,23.824722290039062,0.0,78.68875885009766,243.10183715820312,84.30823516845703,1777838702397512899
1777838702500548012,23.824722290039062,0.0,-0.15843749046325684,-0.0013812382239848375,-1.1399201154708862,27.260000228881836,74.83976745605469,0.0,0.0,0.0,0.0,0.0,23.824722290039062,0.0,78.68875885009766,243.10183715820312,84.30823516845703,1777838702497579301
1777838702600247265,23.824722290039062,0.0,-0.1566791534423828,-0.0023702778853476048,-1.1416057348251343,27.260000228881836,27.34000015258789,26.530000686645508,29.760000228881836,27.899999618530273,30.079999923706055,31.040000915527344,23.824722290039062,0.0,-0.15769878029823303,-0.004037618637084961,-1.1375335454940796,1777838702597656480
1777838702699896406,23.824722290039062,0.0,-0.1566791534423828,-0.0023702778853476048,-1.1416057348251343,27.260000228881836,27.34000015258789,26.530000686645508,29.760000228881836,27.899999618530273,30.079999923706055,31.040000915527344,23.824722290039062,0.0,-0.15769878029823303,-0.004037618637084961,-1.1375335454940796,1777838702597656480
1777838702800677217,23.824722290039062,0.0,-0.1566791534423828,-0.0023702778853476048,-1.1416057348251343,27.260000228881836,27.34000015258789,26.530000686645508,29.760000228881836,27.899999618530273,30.079999923706055,31.040000915527344,23.824722290039062,0.0,-0.15769878029823303,-0.004037618637084961,-1.1375335454940796,1777838702597656480
1777838702900394618,23.824722290039062,0.0,-0.1566791534423828,-0.0023702778853476048,-1.1416057348251343,27.260000228881836,27.34000015258789,26.530000686645508,29.760000228881836,27.899999618530273,30.079999923706055,31.040000915527344,23.824722290039062,0.0,-0.15769878029823303,-0.004037618637084961,-1.1375335454940796,1777838702597656480
1777838703000033536,23.824722290039062,0.0,-0.15631437301635742,-0.0018739700317382812,-1.144065022468567,27.34000015258789,27.34000015258789,26.530000686645508,29.670000076293945,27.979999542236328,30.0,30.959999084472656,23.824722290039062,0.0,-0.1587963104248047,-0.001188119174912572,-1.1402086019515991,1777838702997890420
1777838703100820255,279.0318603515625,175.0592803955078,78.68875885009766,243.10183715820312,84.30823516845703,74.83976745605469,27.260000228881836,26.450000762939453,29.670000076293945,27.979999542236328,30.0,31.040000915527344,23.824722290039062,0.0,-0.15640178322792053,-0.006347496993839741,-1.1418977975845337,1777838703097954747
1777838703200548544,279.0318603515625,175.0592803955078,78.68875885009766,243.10183715820312,84.30823516845703,74.83976745605469,27.260000228881836,26.450000762939453,29.760000228881836,27.979999542236328,30.0,31.040000915527344,23.824722290039062,0.0,-0.15783031284809113,-0.002244710922241211,-1.1400878429412842,1777838703198019500
1777838703300225815,279.0318603515625,175.0592803955078,78.68875885009766,243.10183715820312,84.30823516845703,74.83976745605469,27.260000228881836,26.450000762939453,29.84000015258789,27.899999618530273,30.0,31.040000915527344,23.824722290039062,0.0,-0.15791812539100647,-0.00708460807800293,-1.140486717224121,1777838703298029587
1777838703399877975,23.824722290039062,0.0,-0.15797653794288635,-0.0029174485243856907,-1.139513611793518,27.34000015258789,27.34000015258789,26.450000762939453,29.760000228881836,27.899999618530273,30.0,31.040000915527344,23.824722290039062,0.0,-0.15745241940021515,-0.0008984406595118344,-1.1415032148361206,1777838703398121581
1777838703500681638,23.824722290039062,0.0,-0.15797653794288635,-0.0029174485243856907,-1.139513611793518,27.34000015258789,27.34000015258789,26.450000762939453,29.760000228881836,27.899999618530273,30.0,31.040000915527344,23.824722290039062,0.0,-0.15745241940021515,-0.0008984406595118344,-1.1415032148361206,1777838703398121581
1777838703600386001,23.824722290039062,0.0,-0.1586206704378128,-0.0026841957587748766,-1.1399013996124268,27.260000228881836,27.260000228881836,26.530000686645508,29.670000076293945,27.979999542236328,30.0,30.959999084472656,23.824722290039062,0.0,-0.15751123428344727,-0.0032329559326171875,-1.1403138637542725,1777838703598247014
1777838703700017457,23.824722290039062,0.0,-0.1586206704378128,-0.0026841957587748766,-1.1399013996124268,27.260000228881836,27.260000228881836,26.530000686645508,29.670000076293945,27.979999542236328,30.0,30.959999084472656,23.824722290039062,0.0,-0.15751123428344727,-0.0032329559326171875,-1.1403138637542725,1777838703598247014
1777838703800824768,23.824722290039062,0.0,-0.1569124013185501,-0.008164644241333008,-1.1404378414154053,27.34000015258789,27.260000228881836,26.530000686645508,29.670000076293945,27.979999542236328,30.0,30.959999084472656,23.824722290039062,0.0,-0.15751123428344727,-0.0032329559326171875,-1.1403138637542725,1777838703713479179
1777838703900556169,23.824722290039062,0.0,-0.1566425859928131,-0.00029047328280285,-1.1398208141326904,27.34000015258789,74.83976745605469,0.0,0.0,0.0,0.0,0.0,23.824722290039062,0.0,78.68875885009766,243.10183715820312,84.30823516845703,1777838703898440515
1777838704000228829,23.824722290039062,0.0,-0.15867193043231964,-0.005815823562443256,-1.1390013694763184,27.260000228881836,27.260000228881836,26.530000686645508,29.760000228881836,27.979999542236328,30.0,30.959999084472656,23.824722290039062,0.0,-0.15754500031471252,-0.0018568832892924547,-1.1423746347427368,1777838703998518954
1777838704099875081,23.824722290039062,0.0,-0.15867193043231964,-0.005815823562443256,-1.1390013694763184,27.260000228881836,27.260000228881836,26.530000686645508,29.760000228881836,27.979999542236328,30.0,30.959999084472656,23.824722290039062,0.0,-0.15754500031471252,-0.0018568832892924547,-1.1423746347427368,1777838703998518954
1777838704200662503,23.824420928955078,0.0,-0.15606680512428284,-0.0007796287536621094,-1.1422061920166016,27.34000015258789,27.260000228881836,26.530000686645508,29.760000228881836,27.979999542236328,30.0,30.959999084472656,23.824722290039062,0.0,-0.15754500031471252,-0.0018568832892924547,-1.1423746347427368,1777838704113466100
1777838704300372608,279.0318603515625,175.0592803955078,78.68875885009766,243.10183715820312,84.30823516845703,74.83976745605469,27.34000015258789,26.530000686645508,29.760000228881836,27.899999618530273,30.0,30.959999084472656,23.824420928955078,0.0,-0.15830595791339874,-0.002567370655015111,-1.1395573616027832,1777838704298714955
1777838704399994915,279.0318603515625,175.0592803955078,78.68875885009766,243.10183715820312,84.30823516845703,74.83976745605469,27.34000015258789,26.530000686645508,29.760000228881836,27.899999618530273,30.0,30.959999084472656,23.824420928955078,0.0,-0.15830595791339874,-0.002567370655015111,-1.1395573616027832,1777838704298714955
1777838704500761023,23.824420928955078,0.0,-0.15683531761169434,-0.0033350784797221422,-1.141890287399292,27.260000228881836,27.34000015258789,26.530000686645508,29.760000228881836,27.899999618530273,30.0,30.959999084472656,23.824420928955078,0.0,-0.15830595791339874,-0.002567370655015111,-1.1395573616027832,1777838704414493751
1777838704600490664,23.824420928955078,0.0,-0.15867868065834045,-0.0031729538459330797,-1.1396450996398926,27.34000015258789,27.34000015258789,26.530000686645508,29.760000228881836,27.899999618530273,30.0,30.959999084472656,23.824420928955078,0.0,-0.15830595791339874,-0.002567370655015111,-1.1395573616027832,1777838704514467763
1777838704700191361,23.824420928955078,0.0,-0.15867868065834045,-0.0031729538459330797,-1.1396450996398926,27.34000015258789,27.34000015258789,26.530000686645508,29.760000228881836,27.899999618530273,30.0,30.959999084472656,23.824420928955078,0.0,-0.15830595791339874,-0.002567370655015111,-1.1395573616027832,1777838704514467763
1777838704799831798,23.824420928955078,0.0,-0.15867868065834045,-0.0031729538459330797,-1.1396450996398926,27.34000015258789,27.34000015258789,26.530000686645508,29.760000228881836,27.899999618530273,30.0,30.959999084472656,23.824420928955078,0.0,-0.15830595791339874,-0.002567370655015111,-1.1395573616027832,1777838704514467763
1777838704900621517,23.824420928955078,0.0,-0.15867868065834045,-0.0031729538459330797,-1.1396450996398926,27.34000015258789,27.34000015258789,26.530000686645508,29.760000228881836,27.899999618530273,30.0,30.959999084472656,23.824420928955078,0.0,-0.15830595791339874,-0.002567370655015111,-1.1395573616027832,1777838704514467763
1777838705000321362,23.824420928955078,0.0,-0.15867868065834045,-0.0031729538459330797,-1.1396450996398926,27.34000015258789,27.34000015258789,26.530000686645508,29.760000228881836,27.899999618530273,30.0,30.959999084472656,23.824420928955078,0.0,-0.15830595791339874,-0.002567370655015111,-1.1395573616027832,1777838704514467763
1777838705099981688,23.824420928955078,0.0,-0.15867868065834045,-0.0031729538459330797,-1.1396450996398926,27.34000015258789,27.34000015258789,26.530000686645508,29.760000228881836,27.899999618530273,30.0,30.959999084472656,23.824420928955078,0.0,-0.15830595791339874,-0.002567370655015111,-1.1395573616027832,1777838704514467763
1777838705200743221,23.824420928955078,0.0,-0.15743494033813477,-0.0055666761472821236,-1.140984296798706,27.34000015258789,74.83976745605469,0.0,0.0,0.0,0.0,0.0,23.824420928955078,0.0,78.68875885009766,243.10183715820312,84.30823516845703,1777838705199251606
1777838705300435326,23.824420928955078,0.0,-0.15629370510578156,-0.005253155715763569,-1.1397182941436768,27.260000228881836,74.83976745605469,0.0,0.0,0.0,0.0,0.0,23.824420928955078,0.0,78.68875885009766,243.10183715820312,84.30823516845703,1777838705299270045
1777838705400190078,23.824420928955078,0.0,-0.15683531761169434,-0.004866123199462891,-1.1405010223388672,27.34000015258789,74.83976745605469,0.0,0.0,0.0,0.0,0.0,23.824420928955078,0.0,78.68875885009766,243.10183715820312,84.30823516845703,1777838705399367317
1777838705499800812,23.824420928955078,0.0,-0.15655477344989777,-0.0014654794940724969,-1.1397401094436646,27.260000228881836,74.83976745605469,0.0,0.0,0.0,0.0,0.0,23.824420928955078,0.0,78.68875885009766,243.10183715820312,84.30823516845703,1777838705499448848
1777838705600572919,23.824420928955078,0.0,-0.15685716271400452,-0.0026257832068949938,-1.1386791467666626,27.34000015258789,74.83976745605469,0.0,0.0,0.0,0.0,0.0,23.824420928955078,0.0,78.68875885009766,243.10183715820312,84.30823516845703,1777838705599490249
1777838705700285709,23.824420928955078,0.0,-0.15758156776428223,-0.006215969566255808,-1.1383206844329834,27.260000228881836,74.83976745605469,0.0,0.0,0.0,0.0,0.0,23.824420928955078,0.0,78.68875885009766,243.10183715820312,84.30823516845703,1777838705699589614
1777838705799935072,23.824420928955078,0.0,-0.15739400684833527,-0.004742145538330078,-1.139893889427185,27.34000015258789,27.260000228881836,26.450000762939453,29.760000228881836,27.979999542236328,30.0,31.040000915527344,23.824420928955078,0.0,-0.15905976295471191,-0.004056294448673725,-1.1435977220535278,1777838705799641608
1777838705900706253,23.824420928955078,0.0,-0.15785415470600128,-0.001264413120225072,-1.1405551433563232,27.34000015258789,74.83976745605469,0.0,0.0,0.0,0.0,0.0,23.824420928955078,0.0,78.68875885009766,243.10183715820312,84.30823516845703,1777838705899709288
1777838706000403746,23.824420928955078,0.0,-0.1577957421541214,-0.004074573516845703,-1.1430652141571045,27.260000228881836,74.83976745605469,0.0,0.0,0.0,0.0,0.0,23.824420928955078,0.0,78.68875885009766,243.10183715820312,84.30823516845703,1777838705999742319
1777838706100049073,23.824420928955078,0.0,-0.1579197198152542,-0.003654956817626953,-1.1411750316619873,27.34000015258789,27.260000228881836,26.530000686645508,29.760000228881836,27.979999542236328,30.0,31.040000915527344,23.824420928955078,0.0,-0.15821893513202667,-0.0038476784247905016,-1.1393800973892212,1777838706099831776
1777838706199778159,23.824420928955078,0.0,-0.1579197198152542,-0.003654956817626953,-1.1411750316619873,27.34000015258789,27.260000228881836,26.530000686645508,29.760000228881836,27.979999542236328,30.0,31.040000915527344,23.824420928955078,0.0,-0.15821893513202667,-0.0038476784247905016,-1.1393800973892212,1777838706099831776
1777838706300583525,279.0318603515625,175.0592803955078,78.68875885009766,243.10183715820312,84.30823516845703,74.83976745605469,27.260000228881836,26.450000762939453,29.670000076293945,27.979999542236328,30.079999923706055,30.959999084472656,23.824420928955078,0.0,-0.1579705774784088,-0.002019802574068308,-1.140204668045044,1777838706299939172
1777838706400263537,23.824420928955078,0.0,-0.15750367939472198,-0.007367134094238281,-1.1398541927337646,27.260000228881836,27.34000015258789,26.530000686645508,29.760000228881836,27.979999542236328,30.0,31.040000915527344,23.824420928955078,0.0,-0.15842318534851074,-0.0016772747039794922,-1.141350269317627,1777838706399999184
1777838706499903122,23.824420928955078,0.0,-0.15750367939472198,-0.007367134094238281,-1.1398541927337646,27.260000228881836,27.34000015258789,26.530000686645508,29.760000228881836,27.979999542236328,30.0,31.040000915527344,23.824420928955078,0.0,-0.15842318534851074,-0.0016772747039794922,-1.141350269317627,1777838706399999184
1777838706600667896,23.824420928955078,0.0,-0.1571500301361084,-0.001779397251084447,-1.1400771141052246,27.260000228881836,27.34000015258789,26.450000762939453,29.670000076293945,27.979999542236328,30.079999923706055,31.040000915527344,23.824420928955078,0.0,-0.15720446407794952,-0.0026106834411621094,-1.141860842704773,1777838706600149654
1777838706700387649,279.0318603515625,175.0592803955078,78.68875885009766,243.10183715820312,84.30823516845703,74.83976745605469,27.34000015258789,26.450000762939453,29.760000228881836,27.979999542236328,30.0,31.040000915527344,23.824420928955078,0.0,-0.15685398876667023,-0.004806120879948139,-1.141890287399292,1777838706700137407
1777838706800026827,279.0318603515625,175.0592803955078,78.68875885009766,243.10183715820312,84.30823516845703,74.83976745605469,27.34000015258789,26.450000762939453,29.760000228881836,27.979999542236328,30.0,31.040000915527344,23.824420928955078,0.0,-0.15685398876667023,-0.004806120879948139,-1.141890287399292,1777838706700137407
1777838706900789675,23.824420928955078,0.0,-0.15776434540748596,-0.003613630775362253,-1.1389930248260498,27.260000228881836,27.260000228881836,26.450000762939453,29.670000076293945,27.899999618530273,30.0,30.959999084472656,23.824420928955078,0.0,-0.15674471855163574,-0.0008086363086476922,-1.1419923305511475,1777838706800264568
1777838707000544205,23.824420928955078,0.0,-0.15718260407447815,-0.0033775963820517063,-1.1400110721588135,27.260000228881836,27.260000228881836,26.450000762939453,29.670000076293945,27.899999618530273,30.0,30.959999084472656,23.824420928955078,0.0,-0.15674471855163574,-0.0008086363086476922,-1.1419923305511475,1777838706915483826
1777838707100155124,23.824420928955078,0.0,-0.15775878727436066,-0.006208817008882761,-1.1399669647216797,27.260000228881836,27.260000228881836,26.450000762939453,29.670000076293945,27.899999618530273,30.0,30.959999084472656,23.824420928955078,0.0,-0.15674471855163574,-0.0008086363086476922,-1.1419923305511475,1777838707015480320
1777838707199857173,23.824420928955078,0.0,-0.15775878727436066,-0.006208817008882761,-1.1399669647216797,27.260000228881836,27.260000228881836,26.450000762939453,29.670000076293945,27.899999618530273,30.0,30.959999084472656,23.824420928955078,0.0,-0.15674471855163574,-0.0008086363086476922,-1.1419923305511475,1777838707015480320
1777838707300632132,279.0318603515625,175.0592803955078,78.68875885009766,243.10183715820312,84.30823516845703,74.83976745605469,27.34000015258789,26.450000762939453,29.760000228881836,27.979999542236328,30.079999923706055,31.040000915527344,23.824420928955078,0.0,-0.15790343284606934,-0.001166264177300036,-1.1407867670059204,1777838707300591521
1777838707400357403,279.0318603515625,175.0592803955078,78.68875885009766,243.10183715820312,84.30823516845703,74.83976745605469,27.34000015258789,26.450000762939453,29.760000228881836,27.979999542236328,30.079999923706055,31.040000915527344,23.824420928955078,0.0,-0.15790343284606934,-0.001166264177300036,-1.1407867670059204,1777838707300591521
1777838707499990026,279.0318603515625,175.0592803955078,78.68875885009766,243.10183715820312,84.30823516845703,74.83976745605469,27.34000015258789,26.450000762939453,29.760000228881836,27.979999542236328,30.079999923706055,31.040000915527344,23.824420928955078,0.0,-0.15790343284606934,-0.001166264177300036,-1.1407867670059204,1777838707300591521
1777838707600767411,279.0318603515625,175.0592803955078,78.68875885009766,243.10183715820312,84.30823516845703,74.83976745605469,27.260000228881836,26.450000762939453,29.760000228881836,27.979999542236328,30.079999923706055,31.040000915527344,23.824420928955078,0.0,-0.15865683555603027,-0.0048299627378582954,-1.1397007703781128,1777838707600765670
1777838707700493163,279.0318603515625,175.0592803955078,78.68875885009766,243.10183715820312,84.30823516845703,74.83976745605469,27.260000228881836,26.450000762939453,29.760000228881836,27.979999542236328,30.079999923706055,31.040000915527344,23.824420928955078,0.0,-0.15865683555603027,-0.0048299627378582954,-1.1397007703781128,1777838707600765670
1777838707800189916,23.824420928955078,0.0,-0.15774250030517578,-0.00409245491027832,-1.1408014297485352,27.34000015258789,27.260000228881836,26.450000762939453,29.760000228881836,27.979999542236328,30.079999923706055,31.040000915527344,23.824420928955078,0.0,-0.15865683555603027,-0.0048299627378582954,-1.1397007703781128,1777838707716479336
1777838707899828427,23.824420928955078,0.0,-0.15774250030517578,-0.00409245491027832,-1.1408014297485352,27.34000015258789,27.260000228881836,26.450000762939453,29.760000228881836,27.979999542236328,30.079999923706055,31.040000915527344,23.824420928955078,0.0,-0.15865683555603027,-0.0048299627378582954,-1.1397007703781128,1777838707716479336
1777838708000605849,23.824420928955078,0.0,-0.15775878727436066,-0.0071430206298828125,-1.13888418674469,27.260000228881836,27.34000015258789,26.3700008392334,29.760000228881836,27.899999618530273,30.0,31.040000915527344,23.824420928955078,0.0,-0.15813866257667542,-0.004595915321260691,-1.1409989595413208,1777838707900901486
1777838708100322768,279.0318603515625,175.0592803955078,78.68875885009766,243.10183715820312,84.30823516845703,74.83976745605469,27.260000228881836,26.450000762939453,29.760000228881836,27.979999542236328,30.079999923706055,31.040000915527344,23.824420928955078,0.0,-0.15844503045082092,-0.004718303680419922,-1.141831874847412,1777838708001021406
1777838708199959298,23.824420928955078,0.0,-0.15733996033668518,0.0005269050598144531,-1.1412111520767212,27.34000015258789,27.260000228881836,26.450000762939453,29.760000228881836,27.979999542236328,30.0,30.959999084472656,23.824420928955078,0.0,-0.15939632058143616,-0.003020763397216797,-1.1415544748306274,1777838708101074252
1777838708300748220,23.824420928955078,0.0,-0.15690088272094727,-0.0021354355849325657,-1.1408904790878296,27.34000015258789,27.260000228881836,26.450000762939453,29.760000228881836,27.979999542236328,30.0,30.959999084472656,23.824420928955078,0.0,-0.15939632058143616,-0.003020763397216797,-1.1415544748306274,1777838708216480232
1777838708400462584,23.824420928955078,0.0,-0.15711665153503418,-0.0021660327911376953,-1.139264464378357,27.260000228881836,27.260000228881836,26.450000762939453,29.760000228881836,27.979999542236328,30.0,30.959999084472656,23.824420928955078,0.0,-0.15939632058143616,-0.003020763397216797,-1.1415544748306274,1777838708316476059
1777838708500085633,23.824420928955078,0.0,-0.15865007042884827,-0.0007502237567678094,-1.1403400897979736,27.260000228881836,27.260000228881836,26.450000762939453,29.760000228881836,27.979999542236328,30.0,30.959999084472656,23.824420928955078,0.0,-0.15939632058143616,-0.003020763397216797,-1.1415544748306274,1777838708417485112
1777838708599805959,23.824420928955078,0.0,-0.15865007042884827,-0.0007502237567678094,-1.1403400897979736,27.260000228881836,27.260000228881836,26.450000762939453,29.760000228881836,27.979999542236328,30.0,30.959999084472656,23.824420928955078,0.0,-0.15939632058143616,-0.003020763397216797,-1.1415544748306274,1777838708417485112
1777838708700625918,23.824420928955078,0.0,-0.1577206403017044,-0.0028884410858154297,-1.1411086320877075,27.34000015258789,74.83976745605469,0.0,0.0,0.0,0.0,0.0,23.824420928955078,0.0,78.68875885009766,243.10183715820312,84.30823516845703,1777838708601414538
1777838708800286263,23.824420928955078,0.0,-0.15782475471496582,-0.0014400482177734375,-1.1396352052688599,27.34000015258789,27.34000015258789,26.530000686645508,29.670000076293945,27.979999542236328,30.0,31.040000915527344,23.824420928955078,0.0,-0.15825510025024414,-0.0051653385162353516,-1.139131784439087,1777838708701488217
1777838708899930238,23.824420928955078,0.0,-0.15792687237262726,-0.001757542253471911,-1.139293909072876,27.34000015258789,27.34000015258789,26.530000686645508,29.670000076293945,27.979999542236328,30.0,31.040000915527344,23.824420928955078,0.0,-0.15825510025024414,-0.0051653385162353516,-1.139131784439087,1777838708816469715
1777838709000711456,23.824420928955078,0.0,-0.15820422768592834,-0.00464002275839448,-1.1386350393295288,27.260000228881836,27.34000015258789,26.530000686645508,29.670000076293945,27.979999542236328,30.0,31.040000915527344,23.824420928955078,0.0,-0.15825510025024414,-0.0051653385162353516,-1.139131784439087,1777838708917466378
1777838709100428264,23.824420928955078,0.0,-0.15759587287902832,-0.002216895343735814,-1.139941930770874,27.34000015258789,27.34000015258789,26.530000686645508,29.670000076293945,27.979999542236328,30.0,31.040000915527344,23.824420928955078,0.0,-0.15825510025024414,-0.0051653385162353516,-1.139131784439087,1777838709017470224
1777838709200080035,23.824594497680664,0.0,-0.15715360641479492,-0.003749529365450144,-1.1410136222839355,27.34000015258789,27.34000015258789,26.530000686645508,29.670000076293945,27.979999542236328,30.0,31.040000915527344,23.824420928955078,0.0,-0.15825510025024414,-0.0051653385162353516,-1.139131784439087,1777838709117473625
1777838709299808880,23.824594497680664,0.0,-0.15736499428749084,-0.0018592674750834703,-1.1421895027160645,27.260000228881836,27.34000015258789,26.530000686645508,29.670000076293945,27.979999542236328,30.0,31.040000915527344,23.824420928955078,0.0,-0.15825510025024414,-0.0051653385162353516,-1.139131784439087,1777838709217474138
1777838709400557858,23.824594497680664,0.0,-0.15751560032367706,-0.0021004676818847656,-1.1417086124420166,27.34000015258789,27.34000015258789,26.530000686645508,29.670000076293945,27.979999542236328,30.0,31.040000915527344,23.824420928955078,0.0,-0.15825510025024414,-0.0051653385162353516,-1.139131784439087,1777838709317473039
1777838709500267573,23.824594497680664,0.0,-0.1570439338684082,-0.005004008300602436,-1.14271879196167,27.260000228881836,27.34000015258789,26.530000686645508,29.670000076293945,27.979999542236328,30.0,31.040000915527344,23.824420928955078,0.0,-0.15825510025024414,-0.0051653385162353516,-1.139131784439087,1777838709417496033
1777838709599954844,23.824594497680664,0.0,-0.1570582389831543,-0.0032607712782919407,-1.142703652381897,27.260000228881836,27.34000015258789,26.530000686645508,29.670000076293945,27.979999542236328,30.0,31.040000915527344,23.824420928955078,0.0,-0.15825510025024414,-0.0051653385162353516,-1.139131784439087,1777838709518470400
1777838709700707136,23.824594497680664,0.0,-0.15768606960773468,-0.002376635791733861,-1.1420893669128418,27.260000228881836,27.34000015258789,26.530000686645508,29.670000076293945,27.979999542236328,30.0,31.040000915527344,23.824420928955078,0.0,-0.15825510025024414,-0.0051653385162353516,-1.139131784439087,1777838709617473299
1777838709800549556,23.824594497680664,0.0,-0.15811681747436523,-0.004088878631591797,-1.141196846961975,27.260000228881836,27.34000015258789,26.530000686645508,29.670000076293945,27.979999542236328,30.0,31.040000915527344,23.824420928955078,0.0,-0.15825510025024414,-0.0051653385162353516,-1.139131784439087,1777838709717472497
1777838709900054178,23.824594497680664,0.0,-0.15731413662433624,-0.0038882095832377672,-1.1387228965759277,27.34000015258789,27.34000015258789,26.530000686645508,29.670000076293945,27.979999542236328,30.0,31.040000915527344,23.824420928955078,0.0,-0.15825510025024414,-0.0051653385162353516,-1.139131784439087,1777838709817464509
1777838710000819008,23.824594497680664,0.0,-0.15867114067077637,-0.0034650166053324938,-1.1391035318374634,27.260000228881836,27.34000015258789,26.530000686645508,29.670000076293945,27.979999542236328,30.0,31.040000915527344,23.824420928955078,0.0,-0.15825510025024414,-0.0051653385162353516,-1.139131784439087,1777838709917471003
1777838710100532297,23.824594497680664,0.0,-0.15867114067077637,-0.0034650166053324938,-1.1391035318374634,27.260000228881836,27.34000015258789,26.530000686645508,29.670000076293945,27.979999542236328,30.0,31.040000915527344,23.824420928955078,0.0,-0.15825510025024414,-0.0051653385162353516,-1.139131784439087,1777838709917471003
1777838710200254605,23.824594497680664,0.0,-0.15612442791461945,-0.0038369495887309313,-1.1417372226715088,27.34000015258789,74.83976745605469,0.0,0.0,0.0,0.0,0.0,23.824420928955078,0.0,78.68875885009766,243.10183715820312,84.30823516845703,1777838710102328469
1777838710299881302,23.824594497680664,0.0,-0.15785415470600128,-0.002501408103853464,-1.1421040296554565,27.260000228881836,27.18000030517578,26.450000762939453,29.670000076293945,27.979999542236328,29.920000076293945,31.040000915527344,23.824594497680664,0.0,-0.15710949897766113,-0.004337628372013569,-1.141218662261963,1777838710202413185
1777838710400666391,23.824594497680664,0.0,-0.15888293087482452,-0.006092389114201069,-1.1385408639907837,27.260000228881836,27.18000030517578,26.450000762939453,29.670000076293945,27.979999542236328,29.920000076293945,31.040000915527344,23.824594497680664,0.0,-0.15710949897766113,-0.004337628372013569,-1.141218662261963,1777838710317462331
1777838710500404421,23.824594497680664,0.0,-0.1582701951265335,-0.0005324681405909359,-1.1408026218414307,27.260000228881836,27.18000030517578,26.450000762939453,29.670000076293945,27.979999542236328,29.920000076293945,31.040000915527344,23.824594497680664,0.0,-0.15710949897766113,-0.004337628372013569,-1.141218662261963,1777838710417468732
1777838710600007303,23.824594497680664,0.0,-0.15813866257667542,-0.002027352573350072,-1.1413136720657349,27.260000228881836,27.18000030517578,26.450000762939453,29.670000076293945,27.979999542236328,29.920000076293945,31.040000915527344,23.824594497680664,0.0,-0.15710949897766113,-0.004337628372013569,-1.141218662261963,1777838710518467896
1777838710700805854,23.824594497680664,0.0,-0.15683531761169434,-0.0026913483161479235,-1.1417372226715088,27.34000015258789,27.18000030517578,26.450000762939453,29.670000076293945,27.979999542236328,29.920000076293945,31.040000915527344,23.824594497680664,0.0,-0.15710949897766113,-0.004337628372013569,-1.141218662261963,1777838710618505168
1777838710800671181,23.824594497680664,0.0,-0.15683531761169434,-0.0026913483161479235,-1.1417372226715088,27.34000015258789,27.18000030517578,26.450000762939453,29.670000076293945,27.979999542236328,29.920000076293945,31.040000915527344,23.824594497680664,0.0,-0.15710949897766113,-0.004337628372013569,-1.141218662261963,1777838710618505168
1777838710900208174,279.0318603515625,175.0592803955078,78.68875885009766,243.10183715820312,84.30823516845703,74.83976745605469,27.34000015258789,26.450000762939453,29.670000076293945,27.899999618530273,30.15999984741211,31.040000915527344,23.824594497680664,0.0,-0.15887697041034698,-0.0028892357368022203,-1.1405622959136963,1777838710802766928
1777838710999845797,279.0318603515625,175.0592803955078,78.68875885009766,243.10183715820312,84.30823516845703,74.83976745605469,27.260000228881836,26.530000686645508,29.670000076293945,27.979999542236328,30.0,31.040000915527344,23.824594497680664,0.0,-0.1577516347169876,-0.0022391476668417454,-1.1401605606079102,1777838710902824052
1777838711100637960,23.824594497680664,0.0,-0.1578831672668457,-0.0023484230041503906,-1.1417821645736694,27.34000015258789,27.34000015258789,26.450000762939453,29.59000015258789,27.979999542236328,30.0,31.040000915527344,23.824594497680664,0.0,-0.15654046833515167,-0.003165801288560033,-1.1408014297485352,1777838711002889009
1777838711200357453,23.824594497680664,0.0,-0.15914559364318848,-0.0032901763916015625,-1.142342448234558,27.260000228881836,27.34000015258789,26.450000762939453,29.59000015258789,27.979999542236328,30.0,31.040000915527344,23.824594497680664,0.0,-0.15654046833515167,-0.003165801288560033,-1.1408014297485352,1777838711118472823
1777838711299993909,23.824594497680664,0.0,-0.15914559364318848,-0.0032901763916015625,-1.142342448234558,27.260000228881836,27.34000015258789,26.450000762939453,29.59000015258789,27.979999542236328,30.0,31.040000915527344,23.824594497680664,0.0,-0.15654046833515167,-0.003165801288560033,-1.1408014297485352,1777838711118472823
1777838711400773035,23.824594497680664,0.0,-0.15914559364318848,-0.0032901763916015625,-1.142342448234558,27.260000228881836,27.34000015258789,26.450000762939453,29.59000015258789,27.979999542236328,30.0,31.040000915527344,23.824594497680664,0.0,-0.15654046833515167,-0.003165801288560033,-1.1408014297485352,1777838711118472823
1777838711500493472,23.824594497680664,0.0,-0.15914559364318848,-0.0032901763916015625,-1.142342448234558,27.260000228881836,27.34000015258789,26.450000762939453,29.59000015258789,27.979999542236328,30.0,31.040000915527344,23.824594497680664,0.0,-0.15654046833515167,-0.003165801288560033,-1.1408014297485352,1777838711118472823
1777838711600196780,23.824594497680664,0.0,-0.15914559364318848,-0.0032901763916015625,-1.142342448234558,27.260000228881836,27.34000015258789,26.450000762939453,29.59000015258789,27.979999542236328,30.0,31.040000915527344,23.824594497680664,0.0,-0.15654046833515167,-0.003165801288560033,-1.1408014297485352,1777838711118472823
1777838711699843533,23.824594497680664,0.0,-0.15744248032569885,-0.004793007858097553,-1.140109658241272,27.34000015258789,74.83976745605469,0.0,0.0,0.0,0.0,0.0,23.824594497680664,0.0,78.68875885009766,243.10183715820312,84.30823516845703,1777838711603726290
1777838711800648936,23.824594497680664,0.0,-0.15783746540546417,0.00046133995056152344,-1.1393816471099854,27.34000015258789,27.260000228881836,26.450000762939453,29.670000076293945,27.979999542236328,29.920000076293945,30.959999084472656,23.824594497680664,0.0,-0.15643835067749023,-0.003158648731186986,-1.1401573419570923,1777838711703351653
1777838711900316448,279.0318603515625,175.0592803955078,78.68875885009766,243.10183715820312,84.30823516845703,74.83976745605469,27.260000228881836,26.450000762939453,29.760000228881836,27.979999542236328,30.0,30.959999084472656,23.824594497680664,0.0,-0.15776634216308594,-0.0029615559615194798,-1.1400437355041504,1777838711803421907
1777838712000022626,279.0318603515625,175.0592803955078,78.68875885009766,243.10183715820312,84.30823516845703,74.83976745605469,27.260000228881836,26.530000686645508,29.760000228881836,27.899999618530273,29.920000076293945,30.959999084472656,23.824594497680664,0.0,-0.15831351280212402,-0.0011034805793315172,-1.1411086320877075,1777838711903490123
1777838712100733566,23.824594497680664,0.0,-0.1576642096042633,-0.0034304459113627672,-1.1397814750671387,27.260000228881836,27.260000228881836,26.450000762939453,29.59000015258789,27.979999542236328,30.0,31.040000915527344,23.824594497680664,0.0,-0.15632867813110352,-0.0041143097914755344,-1.1402702331542969,1777838712003593673
1777838712200469523,23.824594497680664,0.0,-0.15798568725585938,-0.0032826263923197985,-1.140669584274292,27.260000228881836,27.34000015258789,26.530000686645508,29.670000076293945,27.899999618530273,30.0,31.1200008392334,23.824594497680664,0.0,-0.15826264023780823,-0.0014547506580129266,-1.1394309997558594,1777838712103562352
1777838712300100627,23.824594497680664,0.0,-0.15808740258216858,-0.0028232731856405735,-1.1404454708099365,27.260000228881836,27.260000228881836,26.530000686645508,29.760000228881836,27.979999542236328,30.0,31.040000915527344,23.824594497680664,0.0,-0.15857696533203125,0.00003059704977204092,-1.1391901969909668,1777838712203827902
1777838712399808620,23.824594497680664,0.0,-0.15897908806800842,-0.004807710647583008,-1.1400659084320068,27.34000015258789,27.260000228881836,26.530000686645508,29.760000228881836,27.979999542236328,30.0,31.040000915527344,23.824594497680664,0.0,-0.15857696533203125,0.00003059704977204092,-1.1391901969909668,1777838712319480568
1777838712500602857,23.824594497680664,0.0,-0.15897908806800842,-0.004807710647583008,-1.1400659084320068,27.34000015258789,27.260000228881836,26.530000686645508,29.760000228881836,27.979999542236328,30.0,31.040000915527344,23.824594497680664,0.0,-0.15857696533203125,0.00003059704977204092,-1.1391901969909668,1777838712319480568
1777838712600336795,23.824594497680664,0.0,-0.15897908806800842,-0.004807710647583008,-1.1400659084320068,27.34000015258789,27.260000228881836,26.530000686645508,29.760000228881836,27.979999542236328,30.0,31.040000915527344,23.824594497680664,0.0,-0.15857696533203125,0.00003059704977204092,-1.1391901969909668,1777838712319480568
1777838712699944436,23.824594497680664,0.0,-0.15897908806800842,-0.004807710647583008,-1.1400659084320068,27.34000015258789,27.260000228881836,26.530000686645508,29.760000228881836,27.979999542236328,30.0,31.040000915527344,23.824594497680664,0.0,-0.15857696533203125,0.00003059704977204092,-1.1391901969909668,1777838712319480568
1777838712800708802,23.824594497680664,0.0,-0.1583576202392578,-0.005376736167818308,-1.141364574432373,27.34000015258789,74.83976745605469,0.0,0.0,0.0,0.0,0.0,23.824594497680664,0.0,78.68875885009766,243.10183715820312,84.30823516845703,1777838712704050039
1777838712900426740,23.824594497680664,0.0,-0.15920400619506836,-0.002954403404146433,-1.1386791467666626,27.34000015258789,74.83976745605469,0.0,0.0,0.0,0.0,0.0,23.824594497680664,0.0,78.68875885009766,243.10183715820312,84.30823516845703,1777838712804121719
1777838713000077863,23.824594497680664,0.0,-0.15905220806598663,-0.004506111145019531,-1.1404013633728027,27.260000228881836,74.83976745605469,0.0,0.0,0.0,0.0,0.0,23.824594497680664,0.0,78.68875885009766,243.10183715820312,84.30823516845703,1777838712904197324
1777838713099789393,23.824594497680664,0.0,-0.15642523765563965,-0.0033132233656942844,-1.1413792371749878,27.34000015258789,27.34000015258789,26.450000762939453,29.670000076293945,27.899999618530273,30.0,31.040000915527344,23.824594497680664,0.0,-0.15939393639564514,-0.005223751068115234,-1.1403695344924927,1777838713004353837
1777838713200575982,23.824594497680664,0.0,-0.1573987752199173,-0.004012187011539936,-1.1408467292785645,27.34000015258789,27.34000015258789,26.530000686645508,29.760000228881836,27.899999618530273,30.0,31.040000915527344,23.824594497680664,0.0,-0.15842318534851074,-0.006635586265474558,-1.1410439014434814,1777838713104342942
1777838713300311086,279.0318603515625,175.0592803955078,78.68875885009766,243.10183715820312,84.30823516845703,74.83976745605469,27.260000228881836,26.530000686645508,29.670000076293945,27.979999542236328,30.0,30.959999084472656,23.824594497680664,0.0,-0.15756964683532715,-0.005845228675752878,-1.1389422416687012,1777838713204434788
1777838713399918042,23.824594497680664,0.0,-0.15631556510925293,-0.0038182735443115234,-1.1410502195358276,27.260000228881836,27.34000015258789,26.530000686645508,29.59000015258789,27.899999618530273,30.0,31.040000915527344,23.824594497680664,0.0,-0.15840847790241241,-0.002391338348388672,-1.1414448022842407,1777838713304526616
1777838713500725742,23.824594497680664,0.0,-0.1567399501800537,-0.002237558364868164,-1.1407060623168945,27.34000015258789,27.34000015258789,26.530000686645508,29.59000015258789,27.899999618530273,30.0,31.040000915527344,23.824594497680664,0.0,-0.15840847790241241,-0.002391338348388672,-1.1414448022842407,1777838713419473502
1777838713600422605,23.824594497680664,0.0,-0.1565917283296585,-0.0007573763141408563,-1.1416418552398682,27.34000015258789,27.34000015258789,26.530000686645508,29.59000015258789,27.899999618530273,30.0,31.040000915527344,23.824594497680664,0.0,-0.15840847790241241,-0.002391338348388672,-1.1414448022842407,1777838713520473907
1777838713700061172,23.824594497680664,0.0,-0.15894849598407745,-0.0017718473682180047,-1.1407370567321777,27.34000015258789,27.34000015258789,26.530000686645508,29.59000015258789,27.899999618530273,30.0,31.040000915527344,23.824594497680664,0.0,-0.15840847790241241,-0.002391338348388672,-1.1414448022842407,1777838713620473401
1777838713799777129,23.824594497680664,0.0,-0.15833576023578644,-0.004074573516845703,-1.1408026218414307,27.34000015258789,27.34000015258789,26.530000686645508,29.760000228881836,27.979999542236328,30.079999923706055,31.040000915527344,23.824594497680664,0.0,-0.15759587287902832,-0.0005694230203516781,-1.141628384590149,1777838713719507281
1777838713900557921,23.824594497680664,0.0,-0.15833576023578644,-0.004074573516845703,-1.1408026218414307,27.34000015258789,27.34000015258789,26.530000686645508,29.760000228881836,27.979999542236328,30.079999923706055,31.040000915527344,23.824594497680664,0.0,-0.15759587287902832,-0.0005694230203516781,-1.141628384590149,1777838713719507281
1777838714000262118,279.0318603515625,175.0592803955078,78.68875885009766,243.10183715820312,84.30823516845703,74.83976745605469,27.34000015258789,26.450000762939453,29.670000076293945,27.979999542236328,30.0,31.040000915527344,23.824594497680664,0.0,-0.15641053020954132,-0.0047274427488446236,-1.1413426399230957,1777838713904807914
1777838714099898537,23.824594497680664,0.0,-0.15784700214862823,-0.0032973289489746094,-1.1403722763061523,27.34000015258789,27.34000015258789,26.450000762939453,29.670000076293945,27.979999542236328,30.0,31.040000915527344,23.824594497680664,0.0,-0.15641053020954132,-0.0047274427488446236,-1.1413426399230957,1777838714020473247
1777838714200687422,23.824594497680664,0.0,-0.15784700214862823,-0.0032973289489746094,-1.1403722763061523,27.34000015258789,27.34000015258789,26.450000762939453,29.670000076293945,27.979999542236328,30.0,31.040000915527344,23.824594497680664,0.0,-0.15641053020954132,-0.0047274427488446236,-1.1413426399230957,1777838714020473247
1777838714300418304,23.82402801513672,0.0,-0.15727758407592773,-0.0019979476928710938,-1.1423718929290771,27.34000015258789,74.83976745605469,0.0,0.0,0.0,0.0,0.0,23.824594497680664,0.0,78.68875885009766,243.10183715820312,84.30823516845703,1777838714207118162
1777838714400044964,23.82402801513672,0.0,-0.15865007042884827,-0.004785855300724506,-1.1404279470443726,27.260000228881836,27.260000228881836,26.450000762939453,29.760000228881836,27.899999618530273,30.0,31.040000915527344,23.82402801513672,0.0,-0.15683968365192413,-0.0024938583374023438,-1.1383945941925049,1777838714305097150
1777838714500809923,23.82402801513672,0.0,-0.15869379043579102,-0.0033720333594828844,-1.140584111213684,27.34000015258789,27.260000228881836,26.450000762939453,29.760000228881836,27.899999618530273,30.0,31.040000915527344,23.82402801513672,0.0,-0.15683968365192413,-0.0024938583374023438,-1.1383945941925049,1777838714420482353
1777838714600554712,23.82402801513672,0.0,-0.1565861701965332,-0.0027354557532817125,-1.1396570205688477,27.34000015258789,27.260000228881836,26.450000762939453,29.760000228881836,27.899999618530273,30.0,31.040000915527344,23.82402801513672,0.0,-0.15683968365192413,-0.0024938583374023438,-1.1383945941925049,1777838714520477198
1777838714700256520,23.82402801513672,0.0,-0.15849629044532776,-0.0037376084364950657,-1.1405158042907715,27.34000015258789,27.260000228881836,26.450000762939453,29.760000228881836,27.899999618530273,30.0,31.040000915527344,23.82402801513672,0.0,-0.15683968365192413,-0.0024938583374023438,-1.1383945941925049,1777838714620552841
1777838714799891624,23.82402801513672,0.0,-0.15744248032569885,-0.0003854433598462492,-1.1401573419570923,27.34000015258789,27.260000228881836,26.450000762939453,29.760000228881836,27.899999618530273,30.0,31.040000915527344,23.82402801513672,0.0,-0.15683968365192413,-0.0024938583374023438,-1.1383945941925049,1777838714720474909
1777838714900717102,23.82402801513672,0.0,-0.15852530300617218,-0.0023476281203329563,-1.1391547918319702,27.260000228881836,27.260000228881836,26.450000762939453,29.760000228881836,27.899999618530273,30.0,31.040000915527344,23.82402801513672,0.0,-0.15683968365192413,-0.0024938583374023438,-1.1383945941925049,1777838714820472421
1777838715000384910,23.82402801513672,0.0,-0.1579197198152542,-0.002771615982055664,-1.1420578956604004,27.260000228881836,27.260000228881836,26.450000762939453,29.760000228881836,27.899999618530273,30.0,31.040000915527344,23.82402801513672,0.0,-0.15683968365192413,-0.0024938583374023438,-1.1383945941925049,1777838714920482582
1777838715100024440,23.82402801513672,0.0,-0.15808025002479553,0.001664956333115697,-1.1425105333328247,27.34000015258789,27.260000228881836,26.450000762939453,29.760000228881836,27.899999618530273,30.0,31.040000915527344,23.82402801513672,0.0,-0.15683968365192413,-0.0024938583374023438,-1.1383945941925049,1777838715020477594
1777838715200817899,23.82402801513672,0.0,-0.1565186083316803,-0.00493168830871582,-1.1419923305511475,27.34000015258789,27.260000228881836,26.450000762939453,29.760000228881836,27.899999618530273,30.0,31.040000915527344,23.82402801513672,0.0,-0.15683968365192413,-0.0024938583374023438,-1.1383945941925049,1777838715121473850
1777838715300527615,23.82402801513672,0.0,-0.15783944725990295,0.0005924701690673828,-1.1407227516174316,27.260000228881836,27.260000228881836,26.450000762939453,29.760000228881836,27.899999618530273,30.0,31.040000915527344,23.82402801513672,0.0,-0.15683968365192413,-0.0024938583374023438,-1.1383945941925049,1777838715221482752
1777838715400196274,23.82402801513672,0.0,-0.15783944725990295,0.0005924701690673828,-1.1407227516174316,27.260000228881836,27.260000228881836,26.450000762939453,29.760000228881836,27.899999618530273,30.0,31.040000915527344,23.82402801513672,0.0,-0.15683968365192413,-0.0024938583374023438,-1.1383945941925049,1777838715221482752
1777838715499892805,23.82402801513672,0.0,-0.15783944725990295,0.0005924701690673828,-1.1407227516174316,27.260000228881836,27.260000228881836,26.450000762939453,29.760000228881836,27.899999618530273,30.0,31.040000915527344,23.82402801513672,0.0,-0.15683968365192413,-0.0024938583374023438,-1.1383945941925049,1777838715221482752
1777838715600695227,23.82402801513672,0.0,-0.15739400684833527,-0.004535515792667866,-1.1408538818359375,27.260000228881836,74.83976745605469,0.0,0.0,0.0,0.0,0.0,23.82402801513672,0.0,78.68875885009766,243.10183715820312,84.30823516845703,1777838715518677893
1777838715700367053,23.82402801513672,0.0,-0.15772977471351624,-0.004530350212007761,-1.1391476392745972,27.34000015258789,74.83976745605469,0.0,0.0,0.0,0.0,0.0,23.82402801513672,0.0,78.68875885009766,243.10183715820312,84.30823516845703,1777838715605930111
1777838715800016454,23.82402801513672,0.0,-0.15693464875221252,-0.0023996829986572266,-1.1408686637878418,27.260000228881836,27.260000228881836,26.450000762939453,29.760000228881836,27.979999542236328,30.0,30.959999084472656,23.82402801513672,0.0,-0.15748658776283264,-0.0029758610762655735,-1.1394548416137695,1777838715706028087
1777838715900794950,23.82402801513672,0.0,-0.1575183868408203,-0.001791318180039525,-1.1405766010284424,27.34000015258789,27.34000015258789,26.450000762939453,29.760000228881836,27.979999542236328,30.0,31.1200008392334,23.82402801513672,0.0,-0.15702922642230988,-0.005157788284122944,-1.139606237411499,1777838715806072118
1777838716000469647,23.82402801513672,0.0,-0.1575183868408203,-0.001791318180039525,-1.1405766010284424,27.34000015258789,27.34000015258789,26.450000762939453,29.760000228881836,27.979999542236328,30.0,31.1200008392334,23.82402801513672,0.0,-0.15702922642230988,-0.005157788284122944,-1.139606237411499,1777838715806072118
1777838716100215307,23.82402801513672,0.0,-0.15640337765216827,-0.0003643830423243344,-1.1428169012069702,27.260000228881836,74.83976745605469,0.0,0.0,0.0,0.0,0.0,23.82402801513672,0.0,78.68875885009766,243.10183715820312,84.30823516845703,1777838716006204977
1777838716199848503,23.82402801513672,0.0,-0.15718618035316467,-0.004140535835176706,-1.141042709350586,27.260000228881836,27.34000015258789,26.450000762939453,29.670000076293945,27.979999542236328,30.079999923706055,31.040000915527344,23.82402801513672,0.0,-0.15883922576904297,-0.0008106231689453125,-1.1412115097045898,1777838716106282008
1777838716300622555,23.82402801513672,0.0,-0.15840888023376465,-0.0031081833876669407,-1.1392338275909424,27.34000015258789,27.34000015258789,26.450000762939453,29.670000076293945,27.979999542236328,30.079999923706055,31.040000915527344,23.82402801513672,0.0,-0.15883922576904297,-0.0008106231689453125,-1.1412115097045898,1777838716221473210
1777838716400342733,23.82402801513672,0.0,-0.15884001553058624,-0.0038913884200155735,-1.1383509635925293,27.260000228881836,27.34000015258789,26.450000762939453,29.670000076293945,27.979999542236328,30.079999923706055,31.040000915527344,23.82402801513672,0.0,-0.15883922576904297,-0.0008106231689453125,-1.1412115097045898,1777838716322468374
1777838716499981578,23.82402801513672,0.0,-0.1593303680419922,-0.0014400482177734375,-1.1391611099243164,27.34000015258789,27.34000015258789,26.450000762939453,29.670000076293945,27.979999542236328,30.079999923706055,31.040000915527344,23.82402801513672,0.0,-0.15883922576904297,-0.0008106231689453125,-1.1412115097045898,1777838716421472772
1777838716600762037,23.82402801513672,0.0,-0.1588694155216217,-0.004048744682222605,-1.1395354270935059,27.260000228881836,27.34000015258789,26.450000762939453,29.670000076293945,27.979999542236328,30.079999923706055,31.040000915527344,23.82402801513672,0.0,-0.15883922576904297,-0.0008106231689453125,-1.1412115097045898,1777838716521474248
1777838716700462790,23.82402801513672,0.0,-0.15789031982421875,-0.0008694330463185906,-1.1408904790878296,27.34000015258789,27.34000015258789,26.450000762939453,29.670000076293945,27.979999542236328,30.079999923706055,31.040000915527344,23.82402801513672,0.0,-0.15883922576904297,-0.0008106231689453125,-1.1412115097045898,1777838716622480022
1777838716800204135,23.82402801513672,0.0,-0.15727758407592773,-0.001706282258965075,-1.139198899269104,27.260000228881836,27.34000015258789,26.450000762939453,29.670000076293945,27.979999542236328,30.079999923706055,31.040000915527344,23.82402801513672,0.0,-0.15883922576904297,-0.0008106231689453125,-1.1412115097045898,1777838716722466072
1777838716899836387,23.82402801513672,0.0,-0.15816688537597656,-0.00006437301635742188,-1.1398470401763916,27.260000228881836,27.34000015258789,26.450000762939453,29.670000076293945,27.979999542236328,30.079999923706055,31.040000915527344,23.82402801513672,0.0,-0.15883922576904297,-0.0008106231689453125,-1.1412115097045898,1777838716822483195
1777838717000611217,23.82402801513672,0.0,-0.15945950150489807,-0.0021497406996786594,-1.1422479152679443,27.260000228881836,27.34000015258789,26.450000762939453,29.670000076293945,27.979999542236328,30.079999923706055,31.040000915527344,23.82402801513672,0.0,-0.15883922576904297,-0.0008106231689453125,-1.1412115097045898,1777838716922474615
1777838717100341154,23.82402801513672,0.0,-0.15866398811340332,-0.004140535835176706,-1.141860842704773,27.34000015258789,27.34000015258789,26.450000762939453,29.670000076293945,27.979999542236328,30.079999923706055,31.040000915527344,23.82402801513672,0.0,-0.15883922576904297,-0.0008106231689453125,-1.1412115097045898,1777838717022489980
1777838717199976555,23.82402801513672,0.0,-0.15905976295471191,-0.0025892257690429688,-1.1407442092895508,27.34000015258789,27.34000015258789,26.450000762939453,29.670000076293945,27.979999542236328,30.079999923706055,31.040000915527344,23.82402801513672,0.0,-0.15883922576904297,-0.0008106231689453125,-1.1412115097045898,1777838717122475770
1777838717300747680,23.82402801513672,0.0,-0.15884001553058624,-0.003035465721040964,-1.1408746242523193,27.34000015258789,27.34000015258789,26.450000762939453,29.670000076293945,27.979999542236328,30.079999923706055,31.040000915527344,23.82402801513672,0.0,-0.15883922576904297,-0.0008106231689453125,-1.1412115097045898,1777838717222478764
1777838717400483729,23.82402801513672,0.0,-0.15903034806251526,-0.002042055130004883,-1.140537977218628,27.34000015258789,27.34000015258789,26.450000762939453,29.670000076293945,27.979999542236328,30.079999923706055,31.040000915527344,23.82402801513672,0.0,-0.15883922576904297,-0.0008106231689453125,-1.1412115097045898,1777838717322477925
1777838717500096611,23.82402801513672,0.0,-0.15681782364845276,-0.002282857894897461,-1.141042709350586,27.34000015258789,27.34000015258789,26.450000762939453,29.670000076293945,27.979999542236328,30.079999923706055,31.040000915527344,23.82402801513672,0.0,-0.15883922576904297,-0.0008106231689453125,-1.1412115097045898,1777838717422483474
1777838717599811530,23.82402801513672,0.0,-0.15676656365394592,-0.0020857651252299547,-1.1411893367767334,27.260000228881836,27.34000015258789,26.450000762939453,29.670000076293945,27.979999542236328,30.079999923706055,31.040000915527344,23.82402801513672,0.0,-0.15883922576904297,-0.0008106231689453125,-1.1412115097045898,1777838717522476209
1777838717700601767,23.82402801513672,0.0,-0.15824754536151886,-0.003072023391723633,-1.140817403793335,27.34000015258789,27.34000015258789,26.450000762939453,29.670000076293945,27.979999542236328,30.079999923706055,31.040000915527344,23.82402801513672,0.0,-0.15883922576904297,-0.0008106231689453125,-1.1412115097045898,1777838717622475851
1777838717800289205,23.82402801513672,0.0,-0.15729625523090363,-0.004784265998750925,-1.1417670249938965,27.34000015258789,27.34000015258789,26.450000762939453,29.670000076293945,27.979999542236328,30.079999923706055,31.040000915527344,23.82402801513672,0.0,-0.15883922576904297,-0.0008106231689453125,-1.1412115097045898,1777838717722479586
1777838717899925550,23.82402801513672,0.0,-0.157700777053833,-0.005911190994083881,-1.1400437355041504,27.34000015258789,27.34000015258789,26.450000762939453,29.670000076293945,27.979999542236328,30.079999923706055,31.040000915527344,23.82402801513672,0.0,-0.15883922576904297,-0.0008106231689453125,-1.1412115097045898,1777838717822506580
1777838718000736157,23.82402801513672,0.0,-0.156513050198555,-0.0032019615173339844,-1.1428427696228027,27.260000228881836,27.34000015258789,26.450000762939453,29.670000076293945,27.979999542236328,30.079999923706055,31.040000915527344,23.82402801513672,0.0,-0.15883922576904297,-0.0008106231689453125,-1.1412115097045898,1777838717922476944
1777838718100413780,23.82402801513672,0.0,-0.1565937101840973,-0.004659891128540039,-1.1400730609893799,27.34000015258789,27.34000015258789,26.450000762939453,29.670000076293945,27.979999542236328,30.079999923706055,31.040000915527344,23.82402801513672,0.0,-0.15883922576904297,-0.0008106231689453125,-1.1412115097045898,1777838718023472737
1777838718200073699,23.82402801513672,0.0,-0.15751560032367706,-0.0024863083381205797,-1.141920804977417,27.260000228881836,27.34000015258789,26.450000762939453,29.670000076293945,27.979999542236328,30.079999923706055,31.040000915527344,23.82402801513672,0.0,-0.15883922576904297,-0.0008106231689453125,-1.1412115097045898,1777838718123481805
1777838718299808322,23.82402801513672,0.0,-0.1584303379058838,-0.003165801288560033,-1.140686273574829,27.260000228881836,27.34000015258789,26.450000762939453,29.670000076293945,27.979999542236328,30.079999923706055,31.040000915527344,23.82402801513672,0.0,-0.15883922576904297,-0.0008106231689453125,-1.1412115097045898,1777838718223473281
1777838718400580133,23.82402801513672,0.0,-0.15717902779579163,-0.0028892357368022203,-1.1424596309661865,27.260000228881836,27.34000015258789,26.450000762939453,29.670000076293945,27.979999542236328,30.079999923706055,31.040000915527344,23.82402801513672,0.0,-0.15883922576904297,-0.0008106231689453125,-1.1412115097045898,1777838718323474238
1777838718500279089,23.82402801513672,0.0,-0.15967130661010742,-0.0044063725508749485,-1.1400659084320068,27.260000228881836,27.34000015258789,26.450000762939453,29.670000076293945,27.979999542236328,30.079999923706055,31.040000915527344,23.82402801513672,0.0,-0.15883922576904297,-0.0008106231689453125,-1.1412115097045898,1777838718423480695
1777838718599930693,23.82402801513672,0.0,-0.15967130661010742,-0.0044063725508749485,-1.1400659084320068,27.260000228881836,27.34000015258789,26.450000762939453,29.670000076293945,27.979999542236328,30.079999923706055,31.040000915527344,23.82402801513672,0.0,-0.15883922576904297,-0.0008106231689453125,-1.1412115097045898,1777838718423480695
1777838718700755393,23.82402801513672,0.0,-0.15707333385944366,-0.0026913483161479235,-1.1403722763061523,27.34000015258789,27.34000015258789,26.450000762939453,29.670000076293945,27.979999542236328,30.079999923706055,31.040000915527344,23.82402801513672,0.0,-0.15883922576904297,-0.0008106231689453125,-1.1412115097045898,1777838718623487238
1777838718800416904,23.82402801513672,0.0,-0.15745718777179718,-0.0028232731856405735,-1.1406786441802979,27.260000228881836,27.260000228881836,26.450000762939453,29.670000076293945,27.979999542236328,30.0,31.040000915527344,23.82402801513672,0.0,-0.15831351280212402,-0.003165801288560033,-1.1398060321807861,1777838718708078931
1777838718900076860,23.82402801513672,0.0,-0.15783190727233887,-0.002984205726534128,-1.1403433084487915,27.260000228881836,27.260000228881836,26.450000762939453,29.670000076293945,27.979999542236328,30.0,31.040000915527344,23.82402801513672,0.0,-0.15831351280212402,-0.003165801288560033,-1.1398060321807861,1777838718823470949
1777838718999770076,23.82402801513672,0.0,-0.1562865525484085,-0.002603928092867136,-1.142008662223816,27.34000015258789,27.260000228881836,26.450000762939453,29.670000076293945,27.979999542236328,30.0,31.040000915527344,23.82402801513672,0.0,-0.15831351280212402,-0.003165801288560033,-1.1398060321807861,1777838718923478350
1777838719100531942,23.82402801513672,0.0,-0.1562865525484085,-0.002603928092867136,-1.142008662223816,27.34000015258789,27.260000228881836,26.450000762939453,29.670000076293945,27.979999542236328,30.0,31.040000915527344,23.82402801513672,0.0,-0.15831351280212402,-0.003165801288560033,-1.1398060321807861,1777838718923478350
1777838719200201195,23.82402801513672,0.0,-0.1562865525484085,-0.002603928092867136,-1.142008662223816,27.34000015258789,27.260000228881836,26.450000762939453,29.670000076293945,27.979999542236328,30.0,31.040000915527344,23.82402801513672,0.0,-0.15831351280212402,-0.003165801288560033,-1.1398060321807861,1777838718923478350
1777838719299905003,23.824668884277344,0.0,-0.15865007042884827,-0.0032607712782919407,-1.1420893669128418,27.260000228881836,74.83976745605469,0.0,0.0,0.0,0.0,0.0,23.82402801513672,0.0,78.68875885009766,243.10183715820312,84.30823516845703,1777838719208394458
1777838719400665925,23.824668884277344,0.0,-0.1584668904542923,-0.004063447006046772,-1.1410657167434692,27.34000015258789,74.83976745605469,0.0,0.0,0.0,0.0,0.0,23.82402801513672,0.0,78.68875885009766,243.10183715820312,84.30823516845703,1777838719308453655
1777838719500386566,23.824668884277344,0.0,-0.15815337002277374,-0.004771550185978413,-1.139169454574585,27.34000015258789,27.260000228881836,26.530000686645508,29.760000228881836,27.979999542236328,30.079999923706055,31.040000915527344,23.824668884277344,0.0,-0.15829165279865265,-0.0024433929938822985,-1.140172004699707,1777838719408534613
1777838719600022078,23.824668884277344,0.0,-0.15815337002277374,-0.004771550185978413,-1.139169454574585,27.34000015258789,27.260000228881836,26.530000686645508,29.760000228881836,27.979999542236328,30.079999923706055,31.040000915527344,23.824668884277344,0.0,-0.15829165279865265,-0.0024433929938822985,-1.140172004699707,1777838719408534613
1777838719700793963,23.824668884277344,0.0,-0.15821893513202667,-0.0012612342834472656,-1.140354871749878,27.260000228881836,27.34000015258789,26.530000686645508,29.760000228881836,27.899999618530273,30.0,31.040000915527344,23.824668884277344,0.0,-0.15724101662635803,-0.00622550630941987,-1.1421529054641724,1777838719608707379
1777838719800469437,23.824668884277344,0.0,-0.1577226221561432,-0.005911190994083881,-1.1399856805801392,27.260000228881836,27.34000015258789,26.530000686645508,29.670000076293945,27.979999542236328,30.0,31.040000915527344,23.824668884277344,0.0,-0.15799283981323242,-0.0026035308837890625,-1.1404163837432861,1777838719708746762
1777838719900154560,23.824668884277344,0.0,-0.15786845982074738,-0.0014579296112060547,-1.1417150497436523,27.34000015258789,27.34000015258789,26.530000686645508,29.670000076293945,27.979999542236328,30.0,31.040000915527344,23.824668884277344,0.0,-0.15799283981323242,-0.0026035308837890625,-1.1404163837432861,1777838719824464317
1777838719999858590,23.824668884277344,0.0,-0.1579328328371048,-0.0061893463134765625,-1.1397591829299927,27.100000381469727,27.34000015258789,26.530000686645508,29.670000076293945,27.979999542236328,30.0,31.040000915527344,23.824668884277344,0.0,-0.15799283981323242,-0.0026035308837890625,-1.1404163837432861,1777838719924473978
1777838720100643605,23.824668884277344,0.0,-0.1581815779209137,-0.002288818359375,-1.1393725872039795,27.34000015258789,27.34000015258789,26.530000686645508,29.670000076293945,27.979999542236328,30.0,31.040000915527344,23.824668884277344,0.0,-0.15799283981323242,-0.0026035308837890625,-1.1404163837432861,1777838720025469271
1777838720200358376,23.824668884277344,0.0,-0.15769322216510773,-0.003399451496079564,-1.1400039196014404,27.260000228881836,27.34000015258789,26.530000686645508,29.670000076293945,27.979999542236328,30.0,31.040000915527344,23.824668884277344,0.0,-0.15799283981323242,-0.0026035308837890625,-1.1404163837432861,1777838720124474892
1777838720300060628,23.824668884277344,0.0,-0.15764236450195312,-0.001779397251084447,-1.1410585641860962,27.34000015258789,27.34000015258789,26.530000686645508,29.670000076293945,27.979999542236328,30.0,31.040000915527344,23.824668884277344,0.0,-0.15799283981323242,-0.0026035308837890625,-1.1404163837432861,1777838720224470719
1777838720400769161,23.824668884277344,0.0,-0.15640337765216827,-0.002574523212388158,-1.1417014598846436,27.34000015258789,27.34000015258789,26.530000686645508,29.670000076293945,27.979999542236328,30.0,31.040000915527344,23.824668884277344,0.0,-0.15799283981323242,-0.0026035308837890625,-1.1404163837432861,1777838720324468176
1777838720500492506,23.824668884277344,0.0,-0.15691955387592316,-0.0021878876723349094,-1.1414161920547485,27.260000228881836,27.34000015258789,26.530000686645508,29.670000076293945,27.979999542236328,30.0,31.040000915527344,23.824668884277344,0.0,-0.15799283981323242,-0.0026035308837890625,-1.1404163837432861,1777838720425486395
1777838720600129110,23.824668884277344,0.0,-0.15817482769489288,-0.002304712776094675,-1.1417746543884277,27.34000015258789,27.34000015258789,26.530000686645508,29.670000076293945,27.979999542236328,30.0,31.040000915527344,23.824668884277344,0.0,-0.15799283981323242,-0.0026035308837890625,-1.1404163837432861,1777838720524472831
1777838720699841270,23.824668884277344,0.0,-0.1572740077972412,-0.003129243850708008,-1.1409122943878174,27.260000228881836,27.34000015258789,26.530000686645508,29.670000076293945,27.979999542236328,30.0,31.040000915527344,23.824668884277344,0.0,-0.15799283981323242,-0.0026035308837890625,-1.1404163837432861,1777838720624480065
1777838720800630378,23.824668884277344,0.0,-0.15729227662086487,-0.00348885846324265,-1.1404454708099365,27.420000076293945,27.34000015258789,26.530000686645508,29.670000076293945,27.979999542236328,30.0,31.040000915527344,23.824668884277344,0.0,-0.15799283981323242,-0.0026035308837890625,-1.1404163837432861,1777838720724469319
1777838720900329574,23.824668884277344,0.0,-0.15746474266052246,-0.0013852119445800781,-1.1401430368423462,27.260000228881836,27.34000015258789,26.530000686645508,29.670000076293945,27.979999542236328,30.0,31.040000915527344,23.824668884277344,0.0,-0.15799283981323242,-0.0026035308837890625,-1.1404163837432861,1777838720824472794
1777838720999972290,23.824668884277344,0.0,-0.15746474266052246,-0.0013852119445800781,-1.1401430368423462,27.260000228881836,27.34000015258789,26.530000686645508,29.670000076293945,27.979999542236328,30.0,31.040000915527344,23.824668884277344,0.0,-0.15799283981323242,-0.0026035308837890625,-1.1404163837432861,1777838720824472794
1777838721100770545,23.824668884277344,0.0,-0.1577957421541214,-0.0031876564025878906,-1.1400989294052124,27.260000228881836,27.34000015258789,26.530000686645508,29.670000076293945,27.979999542236328,30.0,31.040000915527344,23.824668884277344,0.0,-0.15799283981323242,-0.0026035308837890625,-1.1404163837432861,1777838721024468153
1777838721200482112,23.824668884277344,0.0,-0.1577957421541214,-0.0031876564025878906,-1.1400989294052124,27.260000228881836,27.34000015258789,26.530000686645508,29.670000076293945,27.979999542236328,30.0,31.040000915527344,23.824668884277344,0.0,-0.15799283981323242,-0.0026035308837890625,-1.1404163837432861,1777838721024468153
1777838721300105216,23.824668884277344,0.0,-0.1577957421541214,-0.0031876564025878906,-1.1400989294052124,27.260000228881836,27.34000015258789,26.530000686645508,29.670000076293945,27.979999542236328,30.0,31.040000915527344,23.824668884277344,0.0,-0.15799283981323242,-0.0026035308837890625,-1.1404163837432861,1777838721024468153
1777838721399846451,23.824668884277344,0.0,-0.1577957421541214,-0.0031876564025878906,-1.1400989294052124,27.260000228881836,27.34000015258789,26.530000686645508,29.670000076293945,27.979999542236328,30.0,31.040000915527344,23.824668884277344,0.0,-0.15799283981323242,-0.0026035308837890625,-1.1404163837432861,1777838721024468153
1777838721500608669,23.824668884277344,0.0,-0.1577957421541214,-0.0031876564025878906,-1.1400989294052124,27.260000228881836,27.34000015258789,26.530000686645508,29.670000076293945,27.979999542236328,30.0,31.040000915527344,23.824668884277344,0.0,-0.15799283981323242,-0.0026035308837890625,-1.1404163837432861,1777838721024468153
1777838721600315236,23.824668884277344,0.0,-0.1577957421541214,-0.0031876564025878906,-1.1400989294052124,27.260000228881836,27.34000015258789,26.530000686645508,29.670000076293945,27.979999542236328,30.0,31.040000915527344,23.824668884277344,0.0,-0.15799283981323242,-0.0026035308837890625,-1.1404163837432861,1777838721024468153
1777838721699970822,23.824668884277344,0.0,-0.1572628766298294,-0.0049817562103271484,-1.1392629146575928,27.34000015258789,27.34000015258789,26.530000686645508,29.760000228881836,27.979999542236328,30.079999923706055,31.040000915527344,23.824668884277344,0.0,-0.1589997559785843,-0.0026985008735209703,-1.1398978233337402,1777838721609951077
1777838721800815892,279.0318603515625,175.0592803955078,78.68875885009766,243.10183715820312,84.30823516845703,74.83976745605469,27.34000015258789,26.530000686645508,29.670000076293945,27.979999542236328,30.079999923706055,30.959999084472656,23.824668884277344,0.0,-0.15707333385944366,-0.0057927765883505344,-1.1422137022018433,1777838721710069590
1777838721900453718,279.0318603515625,175.0592803955078,78.68875885009766,243.10183715820312,84.30823516845703,74.83976745605469,27.34000015258789,26.530000686645508,29.670000076293945,27.899999618530273,30.0,30.959999084472656,23.824668884277344,0.0,-0.1560731679201126,0.00042438507080078125,-1.1420527696609497,1777838721810057084
1777838722000098415,279.0318603515625,175.0592803955078,78.68875885009766,243.10183715820312,84.30823516845703,74.83976745605469,27.260000228881836,26.530000686645508,29.760000228881836,27.899999618530273,30.079999923706055,31.040000915527344,23.824668884277344,0.0,-0.15888293087482452,-0.0034868717193603516,-1.1392850875854492,1777838721910173300
1777838722099812186,279.0318603515625,175.0592803955078,78.68875885009766,243.10183715820312,84.30823516845703,74.83976745605469,27.260000228881836,26.450000762939453,29.670000076293945,27.979999542236328,30.15999984741211,31.040000915527344,23.824668884277344,0.0,-0.1581374704837799,-0.00408172607421875,-1.1409926414489746,1777838722010251369
1777838722200595905,279.0318603515625,175.0592803955078,78.68875885009766,243.10183715820312,84.30823516845703,74.83976745605469,27.260000228881836,26.530000686645508,29.760000228881836,27.979999542236328,30.0,31.040000915527344,23.824668884277344,0.0,-0.15742340683937073,-0.003924767021089792,-1.1393800973892212,1777838722110301659
1777838722300291453,23.824668884277344,0.0,-0.15782475471496582,-0.0016478697070851922,-1.140611171722412,27.34000015258789,27.34000015258789,26.450000762939453,29.670000076293945,27.979999542236328,30.0,30.959999084472656,23.824668884277344,0.0,-0.15750089287757874,-0.002442598342895508,-1.1399562358856201,1777838722210399431
1777838722399937835,23.824668884277344,0.0,-0.15802183747291565,-0.0032019615173339844,-1.140611171722412,27.260000228881836,27.18000030517578,26.450000762939453,29.760000228881836,27.979999542236328,30.079999923706055,31.040000915527344,23.824668884277344,0.0,-0.15623529255390167,-0.001169443130493164,-1.1420066356658936,1777838722310487925
1777838722500693850,23.824668884277344,0.0,-0.15807905793190002,-0.002764463424682617,-1.1408320665359497,27.260000228881836,27.34000015258789,26.3700008392334,29.59000015258789,27.899999618530273,30.079999923706055,31.1200008392334,23.824668884277344,0.0,-0.15927711129188538,-0.003203948261216283,-1.140481948852539,1777838722410535420
1777838722600428213,23.824668884277344,0.0,-0.15783190727233887,-0.0014694530982524157,-1.1413061618804932,27.34000015258789,27.34000015258789,26.3700008392334,29.59000015258789,27.899999618530273,30.079999923706055,31.1200008392334,23.824668884277344,0.0,-0.15927711129188538,-0.003203948261216283,-1.140481948852539,1777838722526489050
1777838722700059762,23.824668884277344,0.0,-0.15822608768939972,-0.001740058185532689,-1.1390669345855713,27.34000015258789,27.34000015258789,26.3700008392334,29.59000015258789,27.899999618530273,30.079999923706055,31.1200008392334,23.824668884277344,0.0,-0.15927711129188538,-0.003203948261216283,-1.140481948852539,1777838722626480932
1777838722799780126,23.824668884277344,0.0,-0.1577083170413971,-0.003627935890108347,-1.1421163082122803,27.34000015258789,27.18000030517578,26.450000762939453,29.670000076293945,27.899999618530273,29.920000076293945,30.959999084472656,23.824668884277344,0.0,-0.15830595791339874,-0.0027354557532817125,-1.141035556793213,1777838722710767236
1777838722900556566,23.824668884277344,0.0,-0.1562190055847168,-0.0035305817145854235,-1.1413061618804932,27.34000015258789,27.34000015258789,26.450000762939453,29.760000228881836,27.899999618530273,30.0,31.040000915527344,23.824668884277344,0.0,-0.1562190055847168,-0.0012203056830912828,-1.1398835182189941,1777838722810768378
1777838723000263615,23.824668884277344,0.0,-0.1562190055847168,-0.0035305817145854235,-1.1413061618804932,27.34000015258789,27.34000015258789,26.450000762939453,29.760000228881836,27.899999618530273,30.0,31.040000915527344,23.824668884277344,0.0,-0.1562190055847168,-0.0012203056830912828,-1.1398835182189941,1777838722810768378
1777838723099901886,23.824668884277344,0.0,-0.15773732960224152,-0.0023849804420024157,-1.1396427154541016,27.34000015258789,74.83976745605469,0.0,0.0,0.0,0.0,0.0,23.824668884277344,0.0,78.68875885009766,243.10183715820312,84.30823516845703,1777838723010926866
1777838723200690919,23.824668884277344,0.0,-0.1564820557832718,-0.000867048860527575,-1.1417515277862549,27.260000228881836,27.34000015258789,26.530000686645508,29.760000228881836,27.899999618530273,30.079999923706055,31.040000915527344,23.824668884277344,0.0,-0.1575668603181839,-0.0022971630096435547,-1.1423308849334717,1777838723111004323
1777838723300386357,23.824668884277344,0.0,-0.15754500031471252,-0.0013558069476857781,-1.1413720846176147,27.34000015258789,27.34000015258789,26.530000686645508,29.760000228881836,27.899999618530273,30.079999923706055,31.040000915527344,23.824668884277344,0.0,-0.1575668603181839,-0.0022971630096435547,-1.1423308849334717,1777838723226480619
1777838723400031072,23.824668884277344,0.0,-0.15714645385742188,-0.004440148361027241,-1.1415032148361206,27.34000015258789,27.34000015258789,26.530000686645508,29.760000228881836,27.899999618530273,30.079999923706055,31.040000915527344,23.824668884277344,0.0,-0.1575668603181839,-0.0022971630096435547,-1.1423308849334717,1777838723326478761
1777838723500822290,23.824668884277344,0.0,-0.15714645385742188,-0.004440148361027241,-1.1415032148361206,27.34000015258789,27.34000015258789,26.530000686645508,29.760000228881836,27.899999618530273,30.079999923706055,31.040000915527344,23.824668884277344,0.0,-0.1575668603181839,-0.0022971630096435547,-1.1423308849334717,1777838723326478761
1777838723600734858,23.824668884277344,0.0,-0.15714645385742188,-0.004440148361027241,-1.1415032148361206,27.34000015258789,27.34000015258789,26.530000686645508,29.760000228881836,27.899999618530273,30.079999923706055,31.040000915527344,23.824668884277344,0.0,-0.1575668603181839,-0.0022971630096435547,-1.1423308849334717,1777838723326478761
1777838723700155721,23.824668884277344,0.0,-0.15714645385742188,-0.004440148361027241,-1.1415032148361206,27.34000015258789,27.34000015258789,26.530000686645508,29.760000228881836,27.899999618530273,30.079999923706055,31.040000915527344,23.824668884277344,0.0,-0.1575668603181839,-0.0022971630096435547,-1.1423308849334717,1777838723326478761
1777838723799881214,23.824668884277344,0.0,-0.15714645385742188,-0.004440148361027241,-1.1415032148361206,27.34000015258789,27.34000015258789,26.530000686645508,29.760000228881836,27.899999618530273,30.079999923706055,31.040000915527344,23.824668884277344,0.0,-0.1575668603181839,-0.0022971630096435547,-1.1423308849334717,1777838723326478761
1777838723900636247,23.824668884277344,0.0,-0.15700021386146545,-0.0012536842841655016,-1.1411232948303223,27.260000228881836,74.83976745605469,0.0,0.0,0.0,0.0,0.0,23.824668884277344,0.0,78.68875885009766,243.10183715820312,84.30823516845703,1777838723811449597
1777838724000347796,23.824668884277344,0.0,-0.15745241940021515,-0.0034085907973349094,-1.1398322582244873,27.34000015258789,74.83976745605469,0.0,0.0,0.0,0.0,0.0,23.824668884277344,0.0,78.68875885009766,243.10183715820312,84.30823516845703,1777838723911513962
1777838724100007382,23.824668884277344,0.0,-0.15752553939819336,-0.002216895343735814,-1.1395986080169678,27.34000015258789,74.83976745605469,0.0,0.0,0.0,0.0,0.0,23.824668884277344,0.0,78.68875885009766,243.10183715820312,84.30823516845703,1777838724027477814
1777838724199801356,279.0318603515625,175.0592803955078,78.68875885009766,243.10183715820312,84.30823516845703,74.83976745605469,27.34000015258789,26.530000686645508,29.670000076293945,27.979999542236328,30.079999923706055,31.040000915527344,23.824668884277344,0.0,-0.15811681747436523,-0.0051792459562420845,-1.140708088874817,1777838724111660765
1777838724300463575,279.0318603515625,175.0592803955078,78.68875885009766,243.10183715820312,84.30823516845703,74.83976745605469,27.34000015258789,26.450000762939453,29.670000076293945,27.899999618530273,30.079999923706055,31.040000915527344,23.824668884277344,0.0,-0.15832820534706116,-0.006525913719087839,-1.1393359899520874,1777838724211740593
1777838724400122123,23.824668884277344,0.0,-0.15654046833515167,-0.0016959507483989,-1.1415985822677612,27.34000015258789,27.34000015258789,26.450000762939453,29.670000076293945,27.979999542236328,30.0,31.040000915527344,23.824668884277344,0.0,-0.1569565087556839,-0.0030052661895751953,-1.1407227516174316,1777838724311789883
1777838724499836190,23.824308395385742,0.0,-0.15843787789344788,-0.004683732986450195,-1.1404720544815063,27.260000228881836,27.34000015258789,26.3700008392334,29.760000228881836,27.979999542236328,30.0,31.040000915527344,23.824308395385742,0.0,-0.157318115234375,-0.0049817562103271484,-1.1423746347427368,1777838724411854988
1777838724600642020,23.824308395385742,0.0,-0.15690088272094727,-0.00289599085226655,-1.1424843072891235,27.34000015258789,27.260000228881836,26.450000762939453,29.670000076293945,27.979999542236328,30.0,31.040000915527344,23.824308395385742,0.0,-0.15927711129188538,-0.0060427188873291016,-1.1375410556793213,1777838724511926594
1777838724700359550,23.824308395385742,0.0,-0.1569124013185501,-0.0021366276778280735,-1.1409766674041748,27.260000228881836,27.34000015258789,26.450000762939453,29.760000228881836,27.899999618530273,29.920000076293945,30.959999084472656,23.824308395385742,0.0,-0.15763282775878906,-0.0048863887786865234,-1.1412627696990967,1777838724611977625
1777838724799963747,23.824308395385742,0.0,-0.15782475471496582,-0.0027573108673095703,-1.1407573223114014,27.260000228881836,27.34000015258789,26.450000762939453,29.760000228881836,27.899999618530273,29.920000076293945,30.959999084472656,23.824308395385742,0.0,-0.15763282775878906,-0.0048863887786865234,-1.1412627696990967,1777838724727475013
1777838724900751724,23.824308395385742,0.0,-0.15724816918373108,-0.003691116813570261,-1.14071524143219,27.34000015258789,27.34000015258789,26.450000762939453,29.760000228881836,27.899999618530273,29.920000076293945,30.959999084472656,23.824308395385742,0.0,-0.15763282775878906,-0.0048863887786865234,-1.1412627696990967,1777838724827485692
1777838725000453773,23.824308395385742,0.0,-0.1585034430027008,-0.002567370655015111,-1.1393800973892212,27.34000015258789,27.34000015258789,26.450000762939453,29.760000228881836,27.899999618530273,29.920000076293945,30.959999084472656,23.824308395385742,0.0,-0.15763282775878906,-0.0048863887786865234,-1.1412627696990967,1777838724928474392
1777838725100093840,23.824308395385742,0.0,-0.1585034430027008,-0.002567370655015111,-1.1393800973892212,27.34000015258789,27.34000015258789,26.450000762939453,29.760000228881836,27.899999618530273,29.920000076293945,30.959999084472656,23.824308395385742,0.0,-0.15763282775878906,-0.0048863887786865234,-1.1412627696990967,1777838724928474392
1777838725199813556,23.824308395385742,0.0,-0.15743811428546906,-0.0031948089599609375,-1.1404938697814941,27.34000015258789,74.83976745605469,0.0,0.0,0.0,0.0,0.0,23.824308395385742,0.0,78.68875885009766,243.10183715820312,84.30823516845703,1777838725112308429
1777838725300583830,23.824308395385742,0.0,-0.15758872032165527,-0.002312262775376439,-1.1406329870224,27.260000228881836,74.83976745605469,0.0,0.0,0.0,0.0,0.0,23.824308395385742,0.0,78.68875885009766,243.10183715820312,84.30823516845703,1777838725227474983
1777838725400231526,23.824308395385742,0.0,-0.1577206403017044,-0.0019526481628417969,-1.142225980758667,27.260000228881836,27.34000015258789,26.530000686645508,29.760000228881836,27.899999618530273,30.079999923706055,31.040000915527344,23.824308395385742,0.0,-0.15755970776081085,-0.003635485889390111,-1.1413792371749878,1777838725312435306
1777838725499928316,23.824308395385742,0.0,-0.15774448215961456,-0.0013852119445800781,-1.140663981437683,27.260000228881836,27.34000015258789,26.530000686645508,29.760000228881836,27.899999618530273,30.079999923706055,31.040000915527344,23.824308395385742,0.0,-0.15755970776081085,-0.003635485889390111,-1.1413792371749878,1777838725427482489
1777838725600711312,23.824308395385742,0.0,-0.15917499363422394,-0.00494519853964448,-1.1403722763061523,27.260000228881836,27.34000015258789,26.530000686645508,29.760000228881836,27.899999618530273,30.079999923706055,31.040000915527344,23.824308395385742,0.0,-0.15755970776081085,-0.003635485889390111,-1.1413792371749878,1777838725528470893
1777838725700419472,23.824308395385742,0.0,-0.15917499363422394,-0.00494519853964448,-1.1403722763061523,27.260000228881836,27.34000015258789,26.530000686645508,29.760000228881836,27.899999618530273,30.079999923706055,31.040000915527344,23.824308395385742,0.0,-0.15755970776081085,-0.003635485889390111,-1.1413792371749878,1777838725528470893
1777838725800065576,23.824308395385742,0.0,-0.15917499363422394,-0.00494519853964448,-1.1403722763061523,27.260000228881836,27.34000015258789,26.530000686645508,29.760000228881836,27.899999618530273,30.079999923706055,31.040000915527344,23.824308395385742,0.0,-0.15755970776081085,-0.003635485889390111,-1.1413792371749878,1777838725528470893
1777838725899782606,23.824308395385742,0.0,-0.15770593285560608,-0.004676182754337788,-1.1405233144760132,27.34000015258789,74.83976745605469,0.0,0.0,0.0,0.0,0.0,23.824308395385742,0.0,78.68875885009766,243.10183715820312,84.30823516845703,1777838725812747259
1777838726000565139,23.824308395385742,0.0,-0.15913286805152893,-0.006916522979736328,-1.139981746673584,27.34000015258789,74.83976745605469,0.0,0.0,0.0,0.0,0.0,23.824308395385742,0.0,78.68875885009766,243.10183715820312,84.30823516845703,1777838725912852253
1777838726100266540,23.824308395385742,0.0,-0.1593061238527298,-0.002523660659790039,-1.1382547616958618,27.34000015258789,74.83976745605469,0.0,0.0,0.0,0.0,0.0,23.824308395385742,0.0,78.68875885009766,243.10183715820312,84.30823516845703,1777838726028472308
1777838726199901885,23.824308395385742,0.0,-0.1583719253540039,-0.0030783810652792454,-1.1389425992965698,27.34000015258789,27.34000015258789,26.530000686645508,29.760000228881836,28.059999465942383,30.079999923706055,31.040000915527344,23.824308395385742,0.0,-0.15701094269752502,-0.007186730392277241,-1.140845537185669,1777838726112967945
1777838726300679048,23.824308395385742,0.0,-0.15813151001930237,-0.0024942555464804173,-1.1400365829467773,27.260000228881836,27.260000228881836,26.450000762939453,29.670000076293945,27.899999618530273,30.0,31.040000915527344,23.824308395385742,0.0,-0.1570582389831543,-0.001377661945298314,-1.1418755054473877,1777838726213055458
1777838726400387504,23.824308395385742,0.0,-0.1569565087556839,-0.0015572706470265985,-1.1425983905792236,27.34000015258789,27.260000228881836,26.450000762939453,29.670000076293945,27.899999618530273,30.0,31.040000915527344,23.824308395385742,0.0,-0.1570582389831543,-0.001377661945298314,-1.1418755054473877,1777838726328473512
1777838726500031830,23.824308395385742,0.0,-0.15756209194660187,-0.0027207531966269016,-1.1426929235458374,27.260000228881836,27.260000228881836,26.450000762939453,29.670000076293945,27.899999618530273,30.0,31.040000915527344,23.824308395385742,0.0,-0.1570582389831543,-0.001377661945298314,-1.1418755054473877,1777838726428481414
1777838726599783694,23.824308395385742,0.0,-0.15849629044532776,-0.0032750763930380344,-1.1414670944213867,27.260000228881836,27.260000228881836,26.450000762939453,29.670000076293945,27.899999618530273,30.0,31.040000915527344,23.824308395385742,0.0,-0.1570582389831543,-0.001377661945298314,-1.1418755054473877,1777838726528474574
1777838726700530431,23.824308395385742,0.0,-0.15636682510375977,-0.0038182735443115234,-1.141182541847229,27.260000228881836,27.260000228881836,26.450000762939453,29.670000076293945,27.899999618530273,30.0,31.040000915527344,23.824308395385742,0.0,-0.1570582389831543,-0.001377661945298314,-1.1418755054473877,1777838726628474179
1777838726800311128,23.824308395385742,0.0,-0.15813151001930237,-0.002261002780869603,-1.1406055688858032,27.260000228881836,27.260000228881836,26.450000762939453,29.670000076293945,27.899999618530273,30.0,31.040000915527344,23.824308395385742,0.0,-0.1570582389831543,-0.001377661945298314,-1.1418755054473877,1777838726728473581
1777838726899897269,23.824308395385742,0.0,-0.1568615436553955,0.0011324882507324219,-1.1416347026824951,27.260000228881836,27.260000228881836,26.450000762939453,29.670000076293945,27.899999618530273,30.0,31.040000915527344,23.824308395385742,0.0,-0.1570582389831543,-0.001377661945298314,-1.1418755054473877,1777838726828476371
1777838727000649580,23.824308395385742,0.0,-0.15936453640460968,-0.0018350282916799188,-1.1417443752288818,27.34000015258789,27.260000228881836,26.450000762939453,29.670000076293945,27.899999618530273,30.0,31.040000915527344,23.824308395385742,0.0,-0.1570582389831543,-0.001377661945298314,-1.1418755054473877,1777838726928476495
1777838727100389221,23.824308395385742,0.0,-0.15700021386146545,-0.002947250846773386,-1.1419923305511475,27.34000015258789,27.260000228881836,26.450000762939453,29.670000076293945,27.899999618530273,30.0,31.040000915527344,23.824308395385742,0.0,-0.1570582389831543,-0.001377661945298314,-1.1418755054473877,1777838727029465732
1777838727200033177,23.824308395385742,0.0,-0.15870769321918488,-0.0032472610473632812,-1.1396936178207397,27.34000015258789,27.260000228881836,26.450000762939453,29.670000076293945,27.899999618530273,30.0,31.040000915527344,23.824308395385742,0.0,-0.1570582389831543,-0.001377661945298314,-1.1418755054473877,1777838727129473022
1777838727299793245,23.824308395385742,0.0,-0.1568833887577057,-0.0021791458129882812,-1.1412405967712402,27.260000228881836,27.260000228881836,26.450000762939453,29.670000076293945,27.899999618530273,30.0,31.040000915527344,23.824308395385742,0.0,-0.1570582389831543,-0.001377661945298314,-1.1418755054473877,1777838727229485831
1777838727400555037,23.824308395385742,0.0,-0.15758395195007324,-0.0040340423583984375,-1.1419355869293213,27.34000015258789,27.260000228881836,26.450000762939453,29.670000076293945,27.899999618530273,30.0,31.040000915527344,23.824308395385742,0.0,-0.1570582389831543,-0.001377661945298314,-1.1418755054473877,1777838727329481584
1777838727500161085,23.824308395385742,0.0,-0.15807151794433594,-0.00188668561168015,-1.140211820602417,27.260000228881836,27.260000228881836,26.450000762939453,29.670000076293945,27.899999618530273,30.0,31.040000915527344,23.824308395385742,0.0,-0.1570582389831543,-0.001377661945298314,-1.1418755054473877,1777838727429477727
1777838727599862375,23.824308395385742,0.0,-0.15816688537597656,-0.0032095112837851048,-1.1398131847381592,27.34000015258789,27.260000228881836,26.450000762939453,29.670000076293945,27.899999618530273,30.0,31.040000915527344,23.824308395385742,0.0,-0.1570582389831543,-0.001377661945298314,-1.1418755054473877,1777838727529476332
1777838727700631167,23.824308395385742,0.0,-0.15816688537597656,-0.0032095112837851048,-1.1398131847381592,27.34000015258789,27.260000228881836,26.450000762939453,29.670000076293945,27.899999618530273,30.0,31.040000915527344,23.824308395385742,0.0,-0.1570582389831543,-0.001377661945298314,-1.1418755054473877,1777838727529476332
1777838727800361772,23.824308395385742,0.0,-0.15816688537597656,-0.0032095112837851048,-1.1398131847381592,27.34000015258789,27.260000228881836,26.450000762939453,29.670000076293945,27.899999618530273,30.0,31.040000915527344,23.824308395385742,0.0,-0.1570582389831543,-0.001377661945298314,-1.1418755054473877,1777838727529476332
1777838727899989728,23.824308395385742,0.0,-0.15816688537597656,-0.0032095112837851048,-1.1398131847381592,27.34000015258789,27.260000228881836,26.450000762939453,29.670000076293945,27.899999618530273,30.0,31.040000915527344,23.824308395385742,0.0,-0.1570582389831543,-0.001377661945298314,-1.1418755054473877,1777838727529476332
1777838728000770890,23.824308395385742,0.0,-0.15816688537597656,-0.0032095112837851048,-1.1398131847381592,27.34000015258789,27.260000228881836,26.450000762939453,29.670000076293945,27.899999618530273,30.0,31.040000915527344,23.824308395385742,0.0,-0.1570582389831543,-0.001377661945298314,-1.1418755054473877,1777838727529476332
1777838728100492384,23.824308395385742,0.0,-0.15816688537597656,-0.0032095112837851048,-1.1398131847381592,27.34000015258789,27.260000228881836,26.450000762939453,29.670000076293945,27.899999618530273,30.0,31.040000915527344,23.824308395385742,0.0,-0.1570582389831543,-0.001377661945298314,-1.1418755054473877,1777838727529476332
1777838728200130969,23.824308395385742,0.0,-0.15816688537597656,-0.0032095112837851048,-1.1398131847381592,27.34000015258789,27.260000228881836,26.450000762939453,29.670000076293945,27.899999618530273,30.0,31.040000915527344,23.824308395385742,0.0,-0.1570582389831543,-0.001377661945298314,-1.1418755054473877,1777838727529476332
1777838728299846148,23.824308395385742,0.0,-0.15816688537597656,-0.0032095112837851048,-1.1398131847381592,27.34000015258789,27.260000228881836,26.450000762939453,29.670000076293945,27.899999618530273,30.0,31.040000915527344,23.824308395385742,0.0,-0.1570582389831543,-0.001377661945298314,-1.1418755054473877,1777838727529476332
1777838728400627199,23.824308395385742,0.0,-0.15816688537597656,-0.0032095112837851048,-1.1398131847381592,27.34000015258789,27.260000228881836,26.450000762939453,29.670000076293945,27.899999618530273,30.0,31.040000915527344,23.824308395385742,0.0,-0.1570582389831543,-0.001377661945298314,-1.1418755054473877,1777838727529476332
1777838728500353656,23.824308395385742,0.0,-0.15816688537597656,-0.0032095112837851048,-1.1398131847381592,27.34000015258789,27.260000228881836,26.450000762939453,29.670000076293945,27.899999618530273,30.0,31.040000915527344,23.824308395385742,0.0,-0.1570582389831543,-0.001377661945298314,-1.1418755054473877,1777838727529476332
1777838728599976871,23.824308395385742,0.0,-0.15816688537597656,-0.0032095112837851048,-1.1398131847381592,27.34000015258789,27.260000228881836,26.450000762939453,29.670000076293945,27.899999618530273,30.0,31.040000915527344,23.824308395385742,0.0,-0.1570582389831543,-0.001377661945298314,-1.1418755054473877,1777838727529476332
1777838728700764422,23.824308395385742,0.0,-0.15816688537597656,-0.0032095112837851048,-1.1398131847381592,27.34000015258789,27.260000228881836,26.450000762939453,29.670000076293945,27.899999618530273,30.0,31.040000915527344,23.824308395385742,0.0,-0.1570582389831543,-0.001377661945298314,-1.1418755054473877,1777838727529476332
1777838728800471101,23.824308395385742,0.0,-0.15816688537597656,-0.0032095112837851048,-1.1398131847381592,27.34000015258789,27.260000228881836,26.450000762939453,29.670000076293945,27.899999618530273,30.0,31.040000915527344,23.824308395385742,0.0,-0.1570582389831543,-0.001377661945298314,-1.1418755054473877,1777838727529476332
1777838728900116742,23.824308395385742,0.0,-0.15816688537597656,-0.0032095112837851048,-1.1398131847381592,27.34000015258789,27.260000228881836,26.450000762939453,29.670000076293945,27.899999618530273,30.0,31.040000915527344,23.824308395385742,0.0,-0.1570582389831543,-0.001377661945298314,-1.1418755054473877,1777838727529476332
1777838728999841791,23.824308395385742,0.0,-0.15816688537597656,-0.0032095112837851048,-1.1398131847381592,27.34000015258789,27.260000228881836,26.450000762939453,29.670000076293945,27.899999618530273,30.0,31.040000915527344,23.824308395385742,0.0,-0.1570582389831543,-0.001377661945298314,-1.1418755054473877,1777838727529476332
1777838729100592935,23.824308395385742,0.0,-0.15816688537597656,-0.0032095112837851048,-1.1398131847381592,27.34000015258789,27.260000228881836,26.450000762939453,29.670000076293945,27.899999618530273,30.0,31.040000915527344,23.824308395385742,0.0,-0.1570582389831543,-0.001377661945298314,-1.1418755054473877,1777838727529476332
1777838729200321132,23.824308395385742,0.0,-0.15816688537597656,-0.0032095112837851048,-1.1398131847381592,27.34000015258789,27.260000228881836,26.450000762939453,29.670000076293945,27.899999618530273,30.0,31.040000915527344,23.824308395385742,0.0,-0.1570582389831543,-0.001377661945298314,-1.1418755054473877,1777838727529476332
1777838729299950014,23.824308395385742,0.0,-0.15816688537597656,-0.0032095112837851048,-1.1398131847381592,27.34000015258789,27.260000228881836,26.450000762939453,29.670000076293945,27.899999618530273,30.0,31.040000915527344,23.824308395385742,0.0,-0.1570582389831543,-0.001377661945298314,-1.1418755054473877,1777838727529476332
1777838729400728158,23.824308395385742,0.0,-0.15816688537597656,-0.0032095112837851048,-1.1398131847381592,27.34000015258789,27.260000228881836,26.450000762939453,29.670000076293945,27.899999618530273,30.0,31.040000915527344,23.824308395385742,0.0,-0.1570582389831543,-0.001377661945298314,-1.1418755054473877,1777838727529476332
1777838729500461633,23.824308395385742,0.0,-0.15816688537597656,-0.0032095112837851048,-1.1398131847381592,27.34000015258789,27.260000228881836,26.450000762939453,29.670000076293945,27.899999618530273,30.0,31.040000915527344,23.824308395385742,0.0,-0.1570582389831543,-0.001377661945298314,-1.1418755054473877,1777838727529476332
1777838729600095644,23.824308395385742,0.0,-0.15816688537597656,-0.0032095112837851048,-1.1398131847381592,27.34000015258789,27.260000228881836,26.450000762939453,29.670000076293945,27.899999618530273,30.0,31.040000915527344,23.824308395385742,0.0,-0.1570582389831543,-0.001377661945298314,-1.1418755054473877,1777838727529476332
1777838729699826619,23.824308395385742,0.0,-0.15816688537597656,-0.0032095112837851048,-1.1398131847381592,27.34000015258789,27.260000228881836,26.450000762939453,29.670000076293945,27.899999618530273,30.0,31.040000915527344,23.824308395385742,0.0,-0.1570582389831543,-0.001377661945298314,-1.1418755054473877,1777838727529476332
1777838729800603134,23.824308395385742,0.0,-0.15816688537597656,-0.0032095112837851048,-1.1398131847381592,27.34000015258789,27.260000228881836,26.450000762939453,29.670000076293945,27.899999618530273,30.0,31.040000915527344,23.824308395385742,0.0,-0.1570582389831543,-0.001377661945298314,-1.1418755054473877,1777838727529476332
1777838729900221442,23.824308395385742,0.0,-0.15816688537597656,-0.0032095112837851048,-1.1398131847381592,27.34000015258789,27.260000228881836,26.450000762939453,29.670000076293945,27.899999618530273,30.0,31.040000915527344,23.824308395385742,0.0,-0.1570582389831543,-0.001377661945298314,-1.1418755054473877,1777838727529476332
1777838729999950990,23.824308395385742,0.0,-0.15816688537597656,-0.0032095112837851048,-1.1398131847381592,27.34000015258789,27.260000228881836,26.450000762939453,29.670000076293945,27.899999618530273,30.0,31.040000915527344,23.824308395385742,0.0,-0.1570582389831543,-0.001377661945298314,-1.1418755054473877,1777838727529476332
1777838730100728746,23.824308395385742,0.0,-0.15816688537597656,-0.0032095112837851048,-1.1398131847381592,27.34000015258789,0.0,0.0,0.0,0.0,0.0,0.0,23.824308395385742,0.0,0.0,0.0,0.0,1777838727529476332
1777838730200412813,23.824308395385742,0.0,-0.15816688537597656,-0.0032095112837851048,-1.1398131847381592,27.34000015258789,0.0,0.0,0.0,0.0,0.0,0.0,23.824308395385742,0.0,0.0,0.0,0.0,1777838727529476332
1777838730300093491,23.824308395385742,0.0,-0.15816688537597656,-0.0032095112837851048,-1.1398131847381592,27.34000015258789,0.0,0.0,0.0,0.0,0.0,0.0,23.824308395385742,0.0,0.0,0.0,0.0,1777838727529476332
1777838730399842429,23.824308395385742,0.0,-0.15816688537597656,-0.0032095112837851048,-1.1398131847381592,27.34000015258789,0.0,0.0,0.0,0.0,0.0,0.0,23.824308395385742,0.0,0.0,0.0,0.0,1777838727529476332
1777838730500545777,23.824308395385742,0.0,-0.15816688537597656,-0.0032095112837851048,-1.1398131847381592,27.34000015258789,0.0,0.0,0.0,0.0,0.0,0.0,23.824308395385742,0.0,0.0,0.0,0.0,1777838727529476332
1777838730600212177,23.824308395385742,0.0,-0.15816688537597656,-0.0032095112837851048,-1.1398131847381592,27.34000015258789,0.0,0.0,0.0,0.0,0.0,0.0,23.824308395385742,0.0,0.0,0.0,0.0,1777838727529476332
1777838730699909652,23.824308395385742,0.0,-0.15816688537597656,-0.0032095112837851048,-1.1398131847381592,27.34000015258789,0.0,0.0,0.0,0.0,0.0,0.0,23.824308395385742,0.0,0.0,0.0,0.0,1777838727529476332
1777838730800683259,23.824308395385742,0.0,-0.15816688537597656,-0.0032095112837851048,-1.1398131847381592,27.34000015258789,0.0,0.0,0.0,0.0,0.0,0.0,23.824308395385742,0.0,0.0,0.0,0.0,1777838727529476332
1777838730900412197,23.824308395385742,0.0,-0.15816688537597656,-0.0032095112837851048,-1.1398131847381592,27.34000015258789,0.0,0.0,0.0,0.0,0.0,0.0,23.824308395385742,0.0,0.0,0.0,0.0,1777838727529476332
1777838731000054060,23.824308395385742,0.0,-0.15816688537597656,-0.0032095112837851048,-1.1398131847381592,27.34000015258789,0.0,0.0,0.0,0.0,0.0,0.0,23.824308395385742,0.0,0.0,0.0,0.0,1777838727529476332
1777838731100820279,23.824308395385742,0.0,-0.15816688537597656,-0.0032095112837851048,-1.1398131847381592,27.34000015258789,0.0,0.0,0.0,0.0,0.0,0.0,23.824308395385742,0.0,0.0,0.0,0.0,1777838727529476332
1777838731200536364,23.824308395385742,0.0,-0.15816688537597656,-0.0032095112837851048,-1.1398131847381592,27.34000015258789,0.0,0.0,0.0,0.0,0.0,0.0,23.824308395385742,0.0,0.0,0.0,0.0,1777838727529476332
1777838731300182450,23.824308395385742,0.0,-0.15816688537597656,-0.0032095112837851048,-1.1398131847381592,27.34000015258789,0.0,0.0,0.0,0.0,0.0,0.0,23.824308395385742,0.0,0.0,0.0,0.0,1777838727529476332
1777838731399893425,23.824308395385742,0.0,-0.15816688537597656,-0.0032095112837851048,-1.1398131847381592,27.34000015258789,0.0,0.0,0.0,0.0,0.0,0.0,23.824308395385742,0.0,0.0,0.0,0.0,1777838727529476332
1777838731500675662,23.824308395385742,0.0,-0.15816688537597656,-0.0032095112837851048,-1.1398131847381592,27.34000015258789,0.0,0.0,0.0,0.0,0.0,0.0,23.824308395385742,0.0,0.0,0.0,0.0,1777838727529476332
1777838731600403099,23.824308395385742,0.0,-0.15816688537597656,-0.0032095112837851048,-1.1398131847381592,27.34000015258789,0.0,0.0,0.0,0.0,0.0,0.0,23.824308395385742,0.0,0.0,0.0,0.0,1777838727529476332
1777838731700037278,23.820180892944336,0.0,-0.15872955322265625,-0.0019959607161581516,-1.1392850875854492,27.34000015258789,27.260000228881836,26.450000762939453,29.670000076293945,27.979999542236328,30.0,31.1200008392334,23.820180892944336,0.0,-0.15731413662433624,-0.002998908283188939,-1.14065682888031,1777838731627652970
1777838731799780641,23.820180892944336,0.0,-0.15872955322265625,-0.0019959607161581516,-1.1392850875854492,27.34000015258789,27.260000228881836,26.450000762939453,29.670000076293945,27.979999542236328,30.0,31.1200008392334,23.820180892944336,0.0,-0.15731413662433624,-0.002998908283188939,-1.14065682888031,1777838731627652970
1777838731900530785,23.820180892944336,0.0,-0.1561836302280426,-0.0010669231414794922,-1.1417515277862549,27.260000228881836,74.83976745605469,0.0,0.0,0.0,0.0,0.0,23.820180892944336,0.0,78.68875885009766,243.10183715820312,84.30823516845703,1777838731832129303
1777838732000170130,23.820180892944336,0.0,-0.1574087142944336,-0.0037860870361328125,-1.139974594116211,27.260000228881836,27.34000015258789,26.530000686645508,29.760000228881836,27.979999542236328,30.0,31.040000915527344,23.820180892944336,0.0,-0.15845933556556702,-0.0032111008185893297,-1.1402626037597656,1777838731927864730
1777838732099885420,23.820180892944336,0.0,-0.15798568725585938,-0.001779397251084447,-1.138803482055664,27.34000015258789,27.34000015258789,26.530000686645508,29.760000228881836,27.979999542236328,30.0,31.040000915527344,23.820180892944336,0.0,-0.15845933556556702,-0.0032111008185893297,-1.1402626037597656,1777838732043507174
1777838732200664101,23.820180892944336,0.0,-0.15647490322589874,-0.0010422865161672235,-1.1420142650604248,27.34000015258789,27.34000015258789,26.530000686645508,29.760000228881836,27.979999542236328,30.0,31.040000915527344,23.820180892944336,0.0,-0.15845933556556702,-0.0032111008185893297,-1.1402626037597656,1777838732143475020
1777838732300365539,23.820180892944336,0.0,-0.15821059048175812,-0.0038735070265829563,-1.1384379863739014,27.34000015258789,27.34000015258789,26.530000686645508,29.760000228881836,27.979999542236328,30.0,31.040000915527344,23.820180892944336,0.0,-0.15845933556556702,-0.0032111008185893297,-1.1402626037597656,1777838732243471995
1777838732400009717,23.820180892944336,0.0,-0.15760579705238342,-0.0036938984412699938,-1.141145944595337,27.34000015258789,27.34000015258789,26.530000686645508,29.760000228881836,27.979999542236328,30.0,31.040000915527344,23.820180892944336,0.0,-0.15845933556556702,-0.0032111008185893297,-1.1402626037597656,1777838732343473415
1777838732500810602,23.820180892944336,0.0,-0.15829125046730042,-0.0026985008735209703,-1.1390817165374756,27.34000015258789,27.34000015258789,26.530000686645508,29.760000228881836,27.979999542236328,30.0,31.040000915527344,23.820180892944336,0.0,-0.15845933556556702,-0.0032111008185893297,-1.1402626037597656,1777838732443481891
1777838732600492688,23.820180892944336,0.0,-0.15747904777526855,-0.006121397018432617,-1.1399379968643188,27.34000015258789,27.34000015258789,26.530000686645508,29.760000228881836,27.979999542236328,30.0,31.040000915527344,23.820180892944336,0.0,-0.15845933556556702,-0.0032111008185893297,-1.1402626037597656,1777838732543475440
1777838732700143088,23.820180892944336,0.0,-0.15676656365394592,-0.0021660327911376953,-1.141730546951294,27.260000228881836,27.34000015258789,26.530000686645508,29.760000228881836,27.979999542236328,30.0,31.040000915527344,23.820180892944336,0.0,-0.15845933556556702,-0.0032111008185893297,-1.1402626037597656,1777838732643465397
1777838732799872118,23.820180892944336,0.0,-0.1589556485414505,-0.005172093398869038,-1.1396205425262451,27.34000015258789,27.34000015258789,26.530000686645508,29.760000228881836,27.979999542236328,30.0,31.040000915527344,23.820180892944336,0.0,-0.15845933556556702,-0.0032111008185893297,-1.1402626037597656,1777838732743469595
1777838732900629670,23.820180892944336,0.0,-0.1572449952363968,-0.0038989384192973375,-1.1416566371917725,27.34000015258789,27.34000015258789,26.530000686645508,29.760000228881836,27.979999542236328,30.0,31.040000915527344,23.820180892944336,0.0,-0.15845933556556702,-0.0032111008185893297,-1.1402626037597656,1777838732856476550
1777838733000368071,346.8070373535156,175.0592803955078,78.68875885009766,243.10183715820312,84.30823516845703,74.83976745605469,27.260000228881836,26.450000762939453,29.670000076293945,27.979999542236328,30.0,30.959999084472656,23.820180892944336,0.0,-0.15684247016906738,-0.0012612342834472656,-1.1392629146575928,1777838732928538413
1777838733099992027,23.820180892944336,0.0,-0.15758156776428223,-0.004455248359590769,-1.1387670040130615,27.420000076293945,27.260000228881836,26.450000762939453,29.670000076293945,27.979999542236328,30.0,30.959999084472656,23.820180892944336,0.0,-0.15684247016906738,-0.0012612342834472656,-1.1392629146575928,1777838733045478342
1777838733200781967,23.820180892944336,0.0,-0.15731413662433624,-0.003122091293334961,-1.141262412071228,27.34000015258789,27.260000228881836,26.450000762939453,29.670000076293945,27.979999542236328,30.0,30.959999084472656,23.820180892944336,0.0,-0.15684247016906738,-0.0012612342834472656,-1.1392629146575928,1777838733144472740
1777838733300471738,23.820180892944336,0.0,-0.15856900811195374,-0.0019888081587851048,-1.1413867473602295,27.34000015258789,27.260000228881836,26.450000762939453,29.670000076293945,27.979999542236328,30.0,30.959999084472656,23.820180892944336,0.0,-0.15684247016906738,-0.0012612342834472656,-1.1392629146575928,1777838733244470160
1777838733400128805,23.820180892944336,0.0,-0.1578974723815918,0.0012350082397460938,-1.1418330669403076,27.420000076293945,27.260000228881836,26.450000762939453,29.670000076293945,27.979999542236328,30.0,30.959999084472656,23.820180892944336,0.0,-0.15684247016906738,-0.0012612342834472656,-1.1392629146575928,1777838733344480080
1777838733499890743,23.820180892944336,0.0,-0.15856941044330597,-0.005040168762207031,-1.1414742469787598,27.34000015258789,27.260000228881836,26.450000762939453,29.670000076293945,27.979999542236328,30.0,30.959999084472656,23.820180892944336,0.0,-0.15684247016906738,-0.0012612342834472656,-1.1392629146575928,1777838733444478019
1777838733600618554,23.820180892944336,0.0,-0.15856941044330597,-0.005040168762207031,-1.1414742469787598,27.34000015258789,27.260000228881836,26.450000762939453,29.670000076293945,27.979999542236328,30.0,30.959999084472656,23.820180892944336,0.0,-0.15684247016906738,-0.0012612342834472656,-1.1392629146575928,1777838733444478019
1777838733700360103,23.820180892944336,0.0,-0.15856941044330597,-0.005040168762207031,-1.1414742469787598,27.34000015258789,27.260000228881836,26.450000762939453,29.670000076293945,27.979999542236328,30.0,30.959999084472656,23.820180892944336,0.0,-0.15684247016906738,-0.0012612342834472656,-1.1392629146575928,1777838733444478019
1777838733799979096,346.80712890625,175.06143188476562,79.10955810546875,243.10183715820312,84.30823516845703,74.83963012695312,27.34000015258789,26.530000686645508,29.760000228881836,27.979999542236328,30.0,30.959999084472656,23.820180892944336,0.0,-0.1576642096042633,-0.003683964256197214,-1.1418755054473877,1777838733720952640
1777838733900758536,346.80712890625,175.06143188476562,79.10955810546875,243.10183715820312,84.30823516845703,74.83963012695312,27.34000015258789,26.530000686645508,29.760000228881836,27.979999542236328,30.0,30.959999084472656,23.820180892944336,0.0,-0.1576642096042633,-0.003683964256197214,-1.1418755054473877,1777838733720952640
1777838734000462400,346.80712890625,175.06143188476562,79.10955810546875,243.10183715820312,84.30823516845703,74.83963012695312,27.34000015258789,26.530000686645508,29.760000228881836,27.979999542236328,30.0,30.959999084472656,23.820180892944336,0.0,-0.1576642096042633,-0.003683964256197214,-1.1418755054473877,1777838733720952640
1777838734100087874,23.820180892944336,0.0,-0.15796184539794922,0.0007017453317530453,-1.1429376602172852,27.34000015258789,74.83934783935547,0.0,0.0,0.0,0.0,0.0,23.820180892944336,0.0,82.31317138671875,243.10183715820312,84.30880737304688,1777838734021206586
1777838734199809405,23.820180892944336,0.0,-0.15894849598407745,-0.005354881286621094,-1.1405110359191895,27.260000228881836,27.34000015258789,26.450000762939453,29.760000228881836,27.979999542236328,30.0,31.040000915527344,23.7346248626709,0.0,-0.15875180065631866,-0.0008034706115722656,-1.13893461227417,1777838734137034734
1777838734300574716,23.7346248626709,0.0,-0.1579197198152542,-0.003399451496079564,-1.141606092453003,27.34000015258789,27.34000015258789,26.530000686645508,29.670000076293945,27.979999542236328,30.0,31.040000915527344,23.7346248626709,0.0,-0.15835046768188477,-0.0027791657485067844,-1.1404526233673096,1777838734221291852
1777838734400224060,23.7346248626709,0.0,-0.15581050515174866,-0.0031888484954833984,-1.1425033807754517,27.34000015258789,27.34000015258789,26.530000686645508,29.670000076293945,27.979999542236328,30.0,31.040000915527344,23.7346248626709,0.0,-0.15835046768188477,-0.0027791657485067844,-1.1404526233673096,1777838734336476832
1777838734499936091,23.7346248626709,0.0,-0.15772977471351624,-0.004720290191471577,-1.1392775774002075,27.260000228881836,27.34000015258789,26.530000686645508,29.670000076293945,27.979999542236328,30.0,31.040000915527344,23.7346248626709,0.0,-0.15835046768188477,-0.0027791657485067844,-1.1404526233673096,1777838734436473678
1777838734600737365,346.8045959472656,175.0612335205078,94.30057525634766,243.10240173339844,84.3123550415039,74.83849334716797,27.34000015258789,26.530000686645508,29.670000076293945,27.979999542236328,30.0,31.1200008392334,23.7346248626709,0.0,-0.1566934585571289,-0.004990100860595703,-1.1404163837432861,1777838734521467390
1777838734700439673,23.7346248626709,0.0,-0.15891948342323303,-0.0023404755629599094,-1.1419633626937866,27.34000015258789,27.34000015258789,26.530000686645508,29.670000076293945,27.979999542236328,30.0,31.1200008392334,23.7346248626709,0.0,-0.1566934585571289,-0.004990100860595703,-1.1404163837432861,1777838734637477779
1777838734800068092,23.7346248626709,0.0,-0.1578156054019928,-0.001480181934311986,-1.1430696249008179,27.34000015258789,27.34000015258789,26.530000686645508,29.670000076293945,27.979999542236328,30.0,31.1200008392334,23.7346248626709,0.0,-0.1566934585571289,-0.004990100860595703,-1.1404163837432861,1777838734737479940
1777838734899792233,23.7346248626709,0.0,-0.1578156054019928,-0.001480181934311986,-1.1430696249008179,27.34000015258789,27.34000015258789,26.530000686645508,29.670000076293945,27.979999542236328,30.0,31.1200008392334,23.7346248626709,0.0,-0.1566934585571289,-0.004990100860595703,-1.1404163837432861,1777838734737479940
1777838735000591340,23.7346248626709,0.0,-0.1578156054019928,-0.001480181934311986,-1.1430696249008179,27.34000015258789,27.34000015258789,26.530000686645508,29.670000076293945,27.979999542236328,30.0,31.1200008392334,23.7346248626709,0.0,-0.1566934585571289,-0.004990100860595703,-1.1404163837432861,1777838734737479940
1777838735100201944,23.7346248626709,0.0,-0.1578156054019928,-0.001480181934311986,-1.1430696249008179,27.34000015258789,27.34000015258789,26.530000686645508,29.670000076293945,27.979999542236328,30.0,31.1200008392334,23.7346248626709,0.0,-0.1566934585571289,-0.004990100860595703,-1.1404163837432861,1777838734737479940
1777838735199913456,23.7346248626709,0.0,-0.15694499015808105,-0.003056128742173314,-1.1406035423278809,27.34000015258789,74.83778381347656,0.0,0.0,0.0,0.0,0.0,23.7346248626709,0.0,99.45711517333984,243.10240173339844,84.32769775390625,1777838735121852503
1777838735300693174,23.7346248626709,0.0,-0.15932083129882812,-0.0014110405463725328,-1.1393506526947021,27.34000015258789,74.83778381347656,0.0,0.0,0.0,0.0,0.0,23.7346248626709,0.0,99.46805572509766,243.10240173339844,84.32769775390625,1777838735222027683
1777838735400413334,23.7346248626709,0.0,-0.1570582389831543,-0.00373522425070405,-1.1387670040130615,27.420000076293945,74.83792114257812,0.0,0.0,0.0,0.0,0.0,23.7346248626709,0.0,99.47020721435547,243.10255432128906,84.32783508300781,1777838735322103973
1777838735500050309,23.7346248626709,0.0,-0.15793442726135254,-0.003683964256197214,-1.139916181564331,27.34000015258789,27.34000015258789,26.530000686645508,29.84000015258789,28.059999465942383,30.079999923706055,30.959999084472656,23.7346248626709,0.0,-0.1573546677827835,-0.0033334889449179173,-1.1396570205688477,1777838735422167245
1777838735600822101,23.7346248626709,0.0,-0.15689373016357422,-0.000553131103515625,-1.142388939857483,27.34000015258789,27.34000015258789,26.450000762939453,29.670000076293945,27.899999618530273,29.920000076293945,31.040000915527344,23.7346248626709,0.0,-0.1557668000459671,-0.0023555755615234375,-1.1404938697814941,1777838735522241554
1777838735700543298,23.7346248626709,0.0,-0.15817442536354065,-0.001691579818725586,-1.140581727027893,27.34000015258789,74.83806610107422,0.0,0.0,0.0,0.0,0.0,23.7346248626709,0.0,99.47127532958984,243.10240173339844,84.32783508300781,1777838735622292734
1777838735800182310,23.7346248626709,0.0,-0.15786130726337433,-0.005384285934269428,-1.1404061317443848,27.34000015258789,74.83806610107422,0.0,0.0,0.0,0.0,0.0,23.7346248626709,0.0,99.47127532958984,243.10240173339844,84.32783508300781,1777838735737478732
1777838735899907784,23.7346248626709,0.0,-0.15786130726337433,-0.005384285934269428,-1.1404061317443848,27.34000015258789,74.83806610107422,0.0,0.0,0.0,0.0,0.0,23.7346248626709,0.0,99.47127532958984,243.10240173339844,84.32783508300781,1777838735737478732
