timestamp_ns,joint_1_pos,joint_2_pos,joint_3_pos,joint_4_pos,joint_5_pos,joint_6_pos,joint_1_vel,joint_2_vel,joint_3_vel,joint_4_vel,joint_5_vel,joint_6_vel,joint_1_current,joint_2_current,joint_3_current,joint_4_current,joint_5_current,joint_6_current,joint_1_temp,joint_2_temp,joint_3_temp,joint_4_temp,joint_5_temp,joint_6_temp,bus_voltage,bus_current,accel_x,accel_y,accel_z,timestamp_ns
1781038800092480885,7.287886138895785e-6,57.29161261516577,103.13237840974764,0.007989472295538388,-0.0019278413388190687,2.5616032541230437e-6,-8.652481271291016e-6,0.0002072969663145834,0.000016928695472023458,-0.01484732841630492,0.0004623024317843551,-5.327201866661407e-6,1.0216198495329456,0.0856298637852879,1.1158334735767412,0.4668199009084559,1.2753718088194457,0.15284832763250017,25.0,25.0,25.0,25.0,25.0,25.0,24.0,4.118,0.0,0.0,1.0,1781038800019042271
1781038800192048329,7.287886138895785e-6,57.29161261516577,103.13237840974764,0.007989472295538388,-0.0019278413388190687,2.5616032541230437e-6,-8.652481271291016e-6,0.0002072969663145834,0.000016928695472023458,-0.01484732841630492,0.0004623024317843551,-5.327201866661407e-6,1.0216198495329456,0.0856298637852879,1.1158334735767412,0.4668199009084559,1.2753718088194457,0.15284832763250017,25.0,25.0,25.0,25.0,25.0,25.0,24.0,4.118,0.0,0.0,1.0,1781038800019042271
1781038800290504461,7.1025883768729595e-6,57.29162528236466,103.13237888868366,0.007681209653646642,-0.0019148214801214664,2.448282463876588e-6,-9.049079694349726e-6,0.0008712865257527424,0.000026932207245476855,-0.014756320196172068,0.0007316443627284212,-5.5092597326006674e-6,0.9684522353464768,0.07958534740003458,1.1216661997274393,0.4459342403428535,1.254103202273459,0.14597617395280532,25.0,25.0,25.0,25.0,25.0,25.0,24.0,4.016,0.0,0.0,1.0,1781038800239543688
1781038800391407380,7.1025883768729595e-6,57.29162528236466,103.13237888868366,0.007681209653646642,-0.0019148214801214664,2.448282463876588e-6,-9.049079694349726e-6,0.0008712865257527424,0.000026932207245476855,-0.014756320196172068,0.0007316443627284212,-5.5092597326006674e-6,0.9684522353464768,0.07958534740003458,1.1216661997274393,0.4459342403428535,1.254103202273459,0.14597617395280532,25.0,25.0,25.0,25.0,25.0,25.0,24.0,4.016,0.0,0.0,1.0,1781038800239543688
1781038800493226151,6.909656300427312e-6,57.29165138684241,103.13237956660588,0.007375456417475396,-0.0018963667559243412,2.3316340054399098e-6,-9.394699858979238e-6,0.0015027385279845703,0.000036172819036634106,-0.014616071693225622,0.0009865064990405494,-5.654048405837944e-6,0.9170432109020576,0.07466779727794946,1.1244116434474785,0.4253944124883307,1.2318963611905058,0.1392144524749498,25.0,25.0,25.0,25.0,25.0,25.0,24.0,3.913,0.0,0.0,1.0,1781038800403981494
1781038800591395595,6.7102130213195265e-6,57.291690175056914,103.13238042685364,0.007073249536844651,-0.001872810557723353,2.212435686163003e-6,-9.684658323071708e-6,0.0020957697824965683,0.00004459210501871086,-0.014425828428328609,0.001224424355100694,-5.761560353229473e-6,0.8674725081915222,0.07076510477946316,1.1242207244797715,0.4052815302938213,1.2087746256657736,0.13259029628369257,25.0,25.0,25.0,25.0,25.0,25.0,24.0,3.809,0.0,0.0,1.0,1781038800583588350
1781038800690558268,6.7102130213195265e-6,57.291690175056914,103.13238042685364,0.007073249536844651,-0.001872810557723353,2.212435686163003e-6,-9.684658323071708e-6,0.0020957697824965683,0.00004459210501871086,-0.014425828428328609,0.001224424355100694,-5.761560353229473e-6,0.8674725081915222,0.07076510477946316,1.1242207244797715,0.4052815302938213,1.2087746256657736,0.13259029628369257,25.0,25.0,25.0,25.0,25.0,25.0,24.0,3.809,0.0,0.0,1.0,1781038800583588350
1781038800790959660,6.505460708233601e-6,57.29174078653593,103.13238145181224,0.006775629320557834,-0.0018445308588433552,2.0914564539003347e-6,-9.91574085029401e-6,0.0026457365396451637,0.00005215237065726527,-0.014185817375542918,0.001443469586485061,-5.832494208657906e-6,0.8197938779476044,0.06776658175137983,1.1212638499946888,0.3856739632903968,1.1847815361844822,0.1261299687530182,25.0,25.0,25.0,25.0,25.0,25.0,24.0,3.705,0.0,0.0,1.0,1781038800769877593
1781038800890796740,6.505460708233601e-6,57.29174078653593,103.13238145181224,0.006775629320557834,-0.0018445308588433552,2.0914564539003347e-6,-9.91574085029401e-6,0.0026457365396451637,0.00005215237065726527,-0.014185817375542918,0.001443469586485061,-5.832494208657906e-6,0.8197938779476044,0.06776658175137983,1.1212638499946888,0.3856739632903968,1.1847815361844822,0.1261299687530182,25.0,25.0,25.0,25.0,25.0,25.0,24.0,3.705,0.0,0.0,1.0,1781038800769877593
1781038800995028537,6.505460708233601e-6,57.29174078653593,103.13238145181224,0.006775629320557834,-0.0018445308588433552,2.0914564539003347e-6,-9.91574085029401e-6,0.0026457365396451637,0.00005215237065726527,-0.014185817375542918,0.001443469586485061,-5.832494208657906e-6,0.8197938779476044,0.06776658175137983,1.1212638499946888,0.3856739632903968,1.1847815361844822,0.1261299687530182,25.0,25.0,25.0,25.0,25.0,25.0,24.0,3.705,0.0,0.0,1.0,1781038800769877593
1781038801091305744,6.296651172424145e-6,57.29180227858906,103.13238262331431,0.006483619741783308,-0.0018119395107257883,1.9694430983981648e-6,-0.000010086104903698636,0.0031491447770903335,0.000058834198813266434,-0.01389718484107326,0.0016422122589568654,-5.86814198907242e-6,0.774037766729054,0.06556469389908351,1.115727184053659,0.36664592031183274,1.1599786292260512,0.11985838477456336,25.0,25.0,25.0,25.0,25.0,25.0,24.0,3.602,0.0,0.0,1.0,1781038801084780222
1781038801193704527,6.296651172424145e-6,57.29180227858906,103.13238262331431,0.006483619741783308,-0.0018119395107257883,1.9694430983981648e-6,-0.000010086104903698636,0.0031491447770903335,0.000058834198813266434,-0.01389718484107326,0.0016422122589568654,-5.86814198907242e-6,0.774037766729054,0.06556469389908351,1.115727184053659,0.36664592031183274,1.1599786292260512,0.11985838477456336,25.0,25.0,25.0,25.0,25.0,25.0,24.0,3.602,0.0,0.0,1.0,1781038801084780222
1781038801291435099,6.296651172424145e-6,57.29180227858906,103.13238262331431,0.006483619741783308,-0.0018119395107257883,1.9694430983981648e-6,-0.000010086104903698636,0.0031491447770903335,0.000058834198813266434,-0.01389718484107326,0.0016422122589568654,-5.86814198907242e-6,0.774037766729054,0.06556469389908351,1.115727184053659,0.36664592031183274,1.1599786292260512,0.11985838477456336,25.0,25.0,25.0,25.0,25.0,25.0,24.0,3.602,0.0,0.0,1.0,1781038801084780222
1781038801390728676,6.0850586529058966e-6,57.2918736490772,103.13238392299031,0.0061982102077226126,-0.001775472362154482,1.84710926500393e-6,-0.000010195169179245144,0.003603555015705592,0.00006463404501873099,-0.01356192106298842,0.0018196803412429464,-5.870279623772274e-6,0.7302140137715729,0.06405646075979429,1.1078090695407916,0.348266198530057,1.1344430971756096,0.11379868785688692,25.0,25.0,25.0,25.0,25.0,25.0,24.0,3.499,0.0,0.0,1.0,1781038801372260355
1781038801491178371,6.0850586529058966e-6,57.2918736490772,103.13238392299031,0.0061982102077226126,-0.001775472362154482,1.84710926500393e-6,-0.000010195169179245144,0.003603555015705592,0.00006463404501873099,-0.01356192106298842,0.0018196803412429464,-5.870279623772274e-6,0.7302140137715729,0.06405646075979429,1.1078090695407916,0.348266198530057,1.1344430971756096,0.11379868785688692,25.0,25.0,25.0,25.0,25.0,25.0,24.0,3.499,0.0,0.0,1.0,1781038801372260355
1781038801591426098,6.0850586529058966e-6,57.2918736490772,103.13238392299031,0.0061982102077226126,-0.001775472362154482,1.84710926500393e-6,-0.000010195169179245144,0.003603555015705592,0.00006463404501873099,-0.01356192106298842,0.0018196803412429464,-5.870279623772274e-6,0.7302140137715729,0.06405646075979429,1.1078090695407916,0.348266198530057,1.1344430971756096,0.11379868785688692,25.0,25.0,25.0,25.0,25.0,25.0,24.0,3.499,0.0,0.0,1.0,1781038801372260355
1781038801690955062,6.0850586529058966e-6,57.2918736490772,103.13238392299031,0.0061982102077226126,-0.001775472362154482,1.84710926500393e-6,-0.000010195169179245144,0.003603555015705592,0.00006463404501873099,-0.01356192106298842,0.0018196803412429464,-5.870279623772274e-6,0.7302140137715729,0.06405646075979429,1.1078090695407916,0.348266198530057,1.1344430971756096,0.11379868785688692,25.0,25.0,25.0,25.0,25.0,25.0,24.0,3.499,0.0,0.0,1.0,1781038801372260355
1781038801790681600,5.871955026929439e-6,57.29195385716056,103.13238533257014,0.005920339039573384,-0.0017355802440666328,1.7251266832186577e-6,-0.000010243493665890424,0.004007484373092148,0.000069561933169826,-0.013182773978368442,0.0019753176057962568,-5.841063018750042e-6,0.6883145115431847,0.06314454543290521,1.0977166289300686,0.3305971120807497,1.1082653610009474,0.107971887429535,25.0,25.0,25.0,25.0,25.0,25.0,24.0,3.396,0.0,0.0,1.0,1781038801721766757
1781038801890611598,5.871955026929439e-6,57.29195385716056,103.13238533257014,0.005920339039573384,-0.0017355802440666328,1.7251266832186577e-6,-0.000010243493665890424,0.004007484373092148,0.000069561933169826,-0.013182773978368442,0.0019753176057962568,-5.841063018750042e-6,0.6883145115431847,0.06314454543290521,1.0977166289300686,0.3305971120807497,1.1082653610009474,0.107971887429535,25.0,25.0,25.0,25.0,25.0,25.0,24.0,3.396,0.0,0.0,1.0,1781038801721766757
1781038801991156753,5.871955026929439e-6,57.29195385716056,103.13238533257014,0.005920339039573384,-0.0017355802440666328,1.7251266832186577e-6,-0.000010243493665890424,0.004007484373092148,0.000069561933169826,-0.013182773978368442,0.0019753176057962568,-5.841063018750042e-6,0.6883145115431847,0.06314454543290521,1.0977166289300686,0.3305971120807497,1.1082653610009474,0.107971887429535,25.0,25.0,25.0,25.0,25.0,25.0,24.0,3.396,0.0,0.0,1.0,1781038801721766757
1781038802090812654,5.658587603651766e-6,57.2920418419955,103.13238683413836,0.005650878858269308,-0.0016927208406766054,1.6041184721553091e-6,-0.000010232653341389027,0.004360308027379465,0.00007363927689660835,-0.012763154568644196,0.002108940906064286,-5.782931389496829e-6,0.6483157832287347,0.06273806039678542,1.0856625659008885,0.3136936090797136,1.0815466021813414,0.10239655921759648,25.0,25.0,25.0,25.0,25.0,25.0,24.0,3.294,0.0,0.0,1.0,1781038802080893792
1781038802191396715,5.658587603651766e-6,57.2920418419955,103.13238683413836,0.005650878858269308,-0.0016927208406766054,1.6041184721553091e-6,-0.000010232653341389027,0.004360308027379465,0.00007363927689660835,-0.012763154568644196,0.002108940906064286,-5.782931389496829e-6,0.6483157832287347,0.06273806039678542,1.0856625659008885,0.3136936090797136,1.0815466021813414,0.10239655921759648,25.0,25.0,25.0,25.0,25.0,25.0,24.0,3.294,0.0,0.0,1.0,1781038802080893792
1781038802291209856,5.658587603651766e-6,57.2920418419955,103.13238683413836,0.005650878858269308,-0.0016927208406766054,1.6041184721553091e-6,-0.000010232653341389027,0.004360308027379465,0.00007363927689660835,-0.012763154568644196,0.002108940906064286,-5.782931389496829e-6,0.6483157832287347,0.06273806039678542,1.0856625659008885,0.3136936090797136,1.0815466021813414,0.10239655921759648,25.0,25.0,25.0,25.0,25.0,25.0,24.0,3.294,0.0,0.0,1.0,1781038802080893792
1781038802392997612,5.658587603651766e-6,57.2920418419955,103.13238683413836,0.005650878858269308,-0.0016927208406766054,1.6041184721553091e-6,-0.000010232653341389027,0.004360308027379465,0.00007363927689660835,-0.012763154568644196,0.002108940906064286,-5.782931389496829e-6,0.6483157832287347,0.06273806039678542,1.0856625659008885,0.3136936090797136,1.0815466021813414,0.10239655921759648,25.0,25.0,25.0,25.0,25.0,25.0,24.0,3.294,0.0,0.0,1.0,1781038802080893792
1781038802490713283,5.446159598298718e-6,57.29213653939013,103.13238841034612,0.005390624021750364,-0.0016473514497943832,1.4846543548057797e-6,-0.000010165108285993789,0.004662161817805162,0.00007689685628198785,-0.012307036153006486,0.0022206976164478123,-5.698519141945755e-6,0.6101814392047985,0.06275311785253997,1.0718621859556567,0.2976025814699654,1.0543962979937762,0.09708861012301968,25.0,25.0,25.0,25.0,25.0,25.0,24.0,3.194,0.0,0.0,1.0,1781038802435424597
1781038802590606278,5.446159598298718e-6,57.29213653939013,103.13238841034612,0.005390624021750364,-0.0016473514497943832,1.4846543548057797e-6,-0.000010165108285993789,0.004662161817805162,0.00007689685628198785,-0.012307036153006486,0.0022206976164478123,-5.698519141945755e-6,0.6101814392047985,0.06275311785253997,1.0718621859556567,0.2976025814699654,1.0543962979937762,0.09708861012301968,25.0,25.0,25.0,25.0,25.0,25.0,24.0,3.194,0.0,0.0,1.0,1781038802435424597
1781038802693017692,5.446159598298718e-6,57.29213653939013,103.13238841034612,0.005390624021750364,-0.0016473514497943832,1.4846543548057797e-6,-0.000010165108285993789,0.004662161817805162,0.00007689685628198785,-0.012307036153006486,0.0022206976164478123,-5.698519141945755e-6,0.6101814392047985,0.06275311785253997,1.0718621859556567,0.2976025814699654,1.0543962979937762,0.09708861012301968,25.0,25.0,25.0,25.0,25.0,25.0,24.0,3.194,0.0,0.0,1.0,1781038802435424597
1781038802790510009,5.446159598298718e-6,57.29213653939013,103.13238841034612,0.005390624021750364,-0.0016473514497943832,1.4846543548057797e-6,-0.000010165108285993789,0.004662161817805162,0.00007689685628198785,-0.012307036153006486,0.0022206976164478123,-5.698519141945755e-6,0.6101814392047985,0.06275311785253997,1.0718621859556567,0.2976025814699654,1.0543962979937762,0.09708861012301968,25.0,25.0,25.0,25.0,25.0,25.0,24.0,3.194,0.0,0.0,1.0,1781038802435424597
1781038802895575193,5.235813329933507e-6,57.29223689645985,103.13239004458254,0.005140280210802573,-0.0015999226208483815,1.3672475919037708e-6,-0.000010044072698094812,0.004913847323093117,0.00007937296492424173,-0.011818849944900988,0.0023110238641246574,-5.590577138635958e-6,0.5738644828671366,0.0631131541684835,1.05653065072886,0.28236236795019853,1.0269298014432346,0.09206110767514164,25.0,25.0,25.0,25.0,25.0,25.0,24.0,3.095,0.0,0.0,1.0,1781038802850195000
1781038802998005081,5.235813329933507e-6,57.29223689645985,103.13239004458254,0.005140280210802573,-0.0015999226208483815,1.3672475919037708e-6,-0.000010044072698094812,0.004913847323093117,0.00007937296492424173,-0.011818849944900988,0.0023110238641246574,-5.590577138635958e-6,0.5738644828671366,0.0631131541684835,1.05653065072886,0.28236236795019853,1.0269298014432346,0.09206110767514164,25.0,25.0,25.0,25.0,25.0,25.0,24.0,3.095,0.0,0.0,1.0,1781038802850195000
1781038803101440179,5.235813329933507e-6,57.29223689645985,103.13239004458254,0.005140280210802573,-0.0015999226208483815,1.3672475919037708e-6,-0.000010044072698094812,0.004913847323093117,0.00007937296492424173,-0.011818849944900988,0.0023110238641246574,-5.590577138635958e-6,0.5738644828671366,0.0631131541684835,1.05653065072886,0.28236236795019853,1.0269298014432346,0.09206110767514164,25.0,25.0,25.0,25.0,25.0,25.0,24.0,3.095,0.0,0.0,1.0,1781038802850195000
1781038803203346426,5.235813329933507e-6,57.29223689645985,103.13239004458254,0.005140280210802573,-0.0015999226208483815,1.3672475919037708e-6,-0.000010044072698094812,0.004913847323093117,0.00007937296492424173,-0.011818849944900988,0.0023110238641246574,-5.590577138635958e-6,0.5738644828671366,0.0631131541684835,1.05653065072886,0.28236236795019853,1.0269298014432346,0.09206110767514164,25.0,25.0,25.0,25.0,25.0,25.0,24.0,3.095,0.0,0.0,1.0,1781038802850195000
1781038803312087729,5.028616137531029e-6,57.29234188434766,103.13239172111018,0.004900456213162839,-0.001550872647664482,1.252353433396785e-6,-9.87338503189848e-6,0.005116740447012325,0.00008111173163941334,-0.011303379112611091,0.00238060405292029,-5.4619038150544356e-6,0.5393094438678772,0.0637490583328786,1.03988047741838,0.2680024462752565,0.9992660038166428,0.08732417281318178,25.0,25.0,25.0,25.0,25.0,25.0,24.0,2.998,0.0,0.0,1.0,1781038803260667849
1781038803413238850,5.028616137531029e-6,57.29234188434766,103.13239172111018,0.004900456213162839,-0.001550872647664482,1.252353433396785e-6,-9.87338503189848e-6,0.005116740447012325,0.00008111173163941334,-0.011303379112611091,0.00238060405292029,-5.4619038150544356e-6,0.5393094438678772,0.0637490583328786,1.03988047741838,0.2680024462752565,0.9992660038166428,0.08732417281318178,25.0,25.0,25.0,25.0,25.0,25.0,24.0,2.998,0.0,0.0,1.0,1781038803260667849
1781038803513050517,5.028616137531029e-6,57.29234188434766,103.13239172111018,0.004900456213162839,-0.001550872647664482,1.252353433396785e-6,-9.87338503189848e-6,0.005116740447012325,0.00008111173163941334,-0.011303379112611091,0.00238060405292029,-5.4619038150544356e-6,0.5393094438678772,0.0637490583328786,1.03988047741838,0.2680024462752565,0.9992660038166428,0.08732417281318178,25.0,25.0,25.0,25.0,25.0,25.0,24.0,2.998,0.0,0.0,1.0,1781038803260667849
1781038803613324627,4.825548965892802e-6,57.2924505090924,103.13239342516748,0.004671657910104182,-0.0015006228840059885,1.1403688802664805e-6,-9.657381232271008e-6,0.005272704281943412,0.0000821616207321766,-0.010765653484556098,0.002430332072503178,-5.315286270893127e-6,0.5064543238498097,0.06459913395168111,1.0221192916416315,0.2545433075578977,0.9715251140515788,0.08288493355967078,25.0,25.0,25.0,25.0,25.0,25.0,24.0,2.902,0.0,0.0,1.0,1781038803592069151
1781038803712817585,4.825548965892802e-6,57.2924505090924,103.13239342516748,0.004671657910104182,-0.0015006228840059885,1.1403688802664805e-6,-9.657381232271008e-6,0.005272704281943412,0.0000821616207321766,-0.010765653484556098,0.002430332072503178,-5.315286270893127e-6,0.5064543238498097,0.06459913395168111,1.0221192916416315,0.2545433075578977,0.9715251140515788,0.08288493355967078,25.0,25.0,25.0,25.0,25.0,25.0,24.0,2.902,0.0,0.0,1.0,1781038803592069151
1781038803812669968,4.825548965892802e-6,57.2924505090924,103.13239342516748,0.004671657910104182,-0.0015006228840059885,1.1403688802664805e-6,-9.657381232271008e-6,0.005272704281943412,0.0000821616207321766,-0.010765653484556098,0.002430332072503178,-5.315286270893127e-6,0.5064543238498097,0.06459913395168111,1.0221192916416315,0.2545433075578977,0.9715251140515788,0.08288493355967078,25.0,25.0,25.0,25.0,25.0,25.0,24.0,2.902,0.0,0.0,1.0,1781038803592069151
1781038803913702372,4.825548965892802e-6,57.2924505090924,103.13239342516748,0.004671657910104182,-0.0015006228840059885,1.1403688802664805e-6,-9.657381232271008e-6,0.005272704281943412,0.0000821616207321766,-0.010765653484556098,0.002430332072503178,-5.315286270893127e-6,0.5064543238498097,0.06459913395168111,1.0221192916416315,0.2545433075578977,0.9715251140515788,0.08288493355967078,25.0,25.0,25.0,25.0,25.0,25.0,24.0,2.902,0.0,0.0,1.0,1781038803592069151
1781038804013466086,4.6274975347605415e-6,57.29256182074144,103.1323951430423,0.004454284426714934,-0.00144957384285568,1.03163355060903e-6,-9.400772805503554e-6,0.005384006811966215,0.00008257410792257313,-0.01021084690787956,0.002461274494714868,-5.153451162582804e-6,0.4752323460915924,0.06560892332397411,1.0034478389954071,0.24199650190939115,0.9438265848899776,0.0787475360590364,25.0,25.0,25.0,25.0,25.0,25.0,24.0,2.809,0.0,0.0,1.0,1781038803960219824
1781038804113408334,4.6274975347605415e-6,57.29256182074144,103.1323951430423,0.004454284426714934,-0.00144957384285568,1.03163355060903e-6,-9.400772805503554e-6,0.005384006811966215,0.00008257410792257313,-0.01021084690787956,0.002461274494714868,-5.153451162582804e-6,0.4752323460915924,0.06560892332397411,1.0034478389954071,0.24199650190939115,0.9438265848899776,0.0787475360590364,25.0,25.0,25.0,25.0,25.0,25.0,24.0,2.809,0.0,0.0,1.0,1781038803960219824
1781038804212470772,4.6274975347605415e-6,57.29256182074144,103.1323951430423,0.004454284426714934,-0.00144957384285568,1.03163355060903e-6,-9.400772805503554e-6,0.005384006811966215,0.00008257410792257313,-0.01021084690787956,0.002461274494714868,-5.153451162582804e-6,0.4752323460915924,0.06560892332397411,1.0034478389954071,0.24199650190939115,0.9438265848899776,0.0787475360590364,25.0,25.0,25.0,25.0,25.0,25.0,24.0,2.809,0.0,0.0,1.0,1781038803960219824
1781038804313338393,4.6274975347605415e-6,57.29256182074144,103.1323951430423,0.004454284426714934,-0.00144957384285568,1.03163355060903e-6,-9.400772805503554e-6,0.005384006811966215,0.00008257410792257313,-0.01021084690787956,0.002461274494714868,-5.153451162582804e-6,0.4752323460915924,0.06560892332397411,1.0034478389954071,0.24199650190939115,0.9438265848899776,0.0787475360590364,25.0,25.0,25.0,25.0,25.0,25.0,24.0,2.809,0.0,0.0,1.0,1781038803960219824
1781038804413124889,4.6274975347605415e-6,57.29256182074144,103.1323951430423,0.004454284426714934,-0.00144957384285568,1.03163355060903e-6,-9.400772805503554e-6,0.005384006811966215,0.00008257410792257313,-0.01021084690787956,0.002461274494714868,-5.153451162582804e-6,0.4752323460915924,0.06560892332397411,1.0034478389954071,0.24199650190939115,0.9438265848899776,0.0787475360590364,25.0,25.0,25.0,25.0,25.0,25.0,24.0,2.809,0.0,0.0,1.0,1781038803960219824
1781038804513347232,4.4352459711535225e-6,57.29267492081351,103.13239686211986,0.004248626367246934,-0.0013981020350648608,9.264314505414672e-7,-9.108531233569409e-6,0.00545324384646377,0.00008240252398101232,-0.009644179103908924,0.002474635985919135,-4.9790249835322854e-6,0.44557350606872154,0.06673092065250918,0.984058257571212,0.230364841896546,0.9162872111669536,0.07491320851030557,25.0,25.0,25.0,25.0,25.0,25.0,24.0,2.718,0.0,0.0,1.0,1781038804434596271
1781038804613190127,4.4352459711535225e-6,57.29267492081351,103.13239686211986,0.004248626367246934,-0.0013981020350648608,9.264314505414672e-7,-9.108531233569409e-6,0.00545324384646377,0.00008240252398101232,-0.009644179103908924,0.002474635985919135,-4.9790249835322854e-6,0.44557350606872154,0.06673092065250918,0.984058257571212,0.230364841896546,0.9162872111669536,0.07491320851030557,25.0,25.0,25.0,25.0,25.0,25.0,24.0,2.718,0.0,0.0,1.0,1781038804434596271
1781038804712736571,4.4352459711535225e-6,57.29267492081351,103.13239686211986,0.004248626367246934,-0.0013981020350648608,9.264314505414672e-7,-9.108531233569409e-6,0.00545324384646377,0.00008240252398101232,-0.009644179103908924,0.002474635985919135,-4.9790249835322854e-6,0.44557350606872154,0.06673092065250918,0.984058257571212,0.230364841896546,0.9162872111669536,0.07491320851030557,25.0,25.0,25.0,25.0,25.0,25.0,24.0,2.718,0.0,0.0,1.0,1781038804434596271
1781038804814841813,4.4352459711535225e-6,57.29267492081351,103.13239686211986,0.004248626367246934,-0.0013981020350648608,9.264314505414672e-7,-9.108531233569409e-6,0.00545324384646377,0.00008240252398101232,-0.009644179103908924,0.002474635985919135,-4.9790249835322854e-6,0.44557350606872154,0.06673092065250918,0.984058257571212,0.230364841896546,0.9162872111669536,0.07491320851030557,25.0,25.0,25.0,25.0,25.0,25.0,24.0,2.718,0.0,0.0,1.0,1781038804434596271
1781038804913024573,4.4352459711535225e-6,57.29267492081351,103.13239686211986,0.004248626367246934,-0.0013981020350648608,9.264314505414672e-7,-9.108531233569409e-6,0.00545324384646377,0.00008240252398101232,-0.009644179103908924,0.002474635985919135,-4.9790249835322854e-6,0.44557350606872154,0.06673092065250918,0.984058257571212,0.230364841896546,0.9162872111669536,0.07491320851030557,25.0,25.0,25.0,25.0,25.0,25.0,24.0,2.718,0.0,0.0,1.0,1781038804434596271
1781038805017800970,4.4352459711535225e-6,57.29267492081351,103.13239686211986,0.004248626367246934,-0.0013981020350648608,9.264314505414672e-7,-9.108531233569409e-6,0.00545324384646377,0.00008240252398101232,-0.009644179103908924,0.002474635985919135,-4.9790249835322854e-6,0.44557350606872154,0.06673092065250918,0.984058257571212,0.230364841896546,0.9162872111669536,0.07491320851030557,25.0,25.0,25.0,25.0,25.0,25.0,24.0,2.718,0.0,0.0,1.0,1781038804434596271
1781038805118617765,4.249472756366117e-6,57.29278896822444,103.13239857090868,0.004054866020924278,-0.0013465574990203356,8.249934616981779e-7,-8.785780013475278e-6,0.005483267441627482,0.00008170106276475148,-0.009070823665778016,0.002471727102630112,-4.794503124984598e-6,0.4174059247716333,0.067924199562041,0.9641326106951492,0.21964274792128183,0.8890194206742399,0.07138037273615694,25.0,25.0,25.0,25.0,25.0,25.0,24.0,2.63,0.0,0.0,1.0,1781038805046700828
1781038805219507845,4.249472756366117e-6,57.29278896822444,103.13239857090868,0.004054866020924278,-0.0013465574990203356,8.249934616981779e-7,-8.785780013475278e-6,0.005483267441627482,0.00008170106276475148,-0.009070823665778016,0.002471727102630112,-4.794503124984598e-6,0.4174059247716333,0.067924199562041,0.9641326106951492,0.21964274792128183,0.8890194206742399,0.07138037273615694,25.0,25.0,25.0,25.0,25.0,25.0,24.0,2.63,0.0,0.0,1.0,1781038805046700828
1781038805321242430,4.249472756366117e-6,57.29278896822444,103.13239857090868,0.004054866020924278,-0.0013465574990203356,8.249934616981779e-7,-8.785780013475278e-6,0.005483267441627482,0.00008170106276475148,-0.009070823665778016,0.002471727102630112,-4.794503124984598e-6,0.4174059247716333,0.067924199562041,0.9641326106951492,0.21964274792128183,0.8890194206742399,0.07138037273615694,25.0,25.0,25.0,25.0,25.0,25.0,24.0,2.63,0.0,0.0,1.0,1781038805046700828
1781038805419298919,4.249472756366117e-6,57.29278896822444,103.13239857090868,0.004054866020924278,-0.0013465574990203356,8.249934616981779e-7,-8.785780013475278e-6,0.005483267441627482,0.00008170106276475148,-0.009070823665778016,0.002471727102630112,-4.794503124984598e-6,0.4174059247716333,0.067924199562041,0.9641326106951492,0.21964274792128183,0.8890194206742399,0.07138037273615694,25.0,25.0,25.0,25.0,25.0,25.0,24.0,2.63,0.0,0.0,1.0,1781038805046700828
1781038805519417325,4.249472756366117e-6,57.29278896822444,103.13239857090868,0.004054866020924278,-0.0013465574990203356,8.249934616981779e-7,-8.785780013475278e-6,0.005483267441627482,0.00008170106276475148,-0.009070823665778016,0.002471727102630112,-4.794503124984598e-6,0.4174059247716333,0.067924199562041,0.9641326106951492,0.21964274792128183,0.8890194206742399,0.07138037273615694,25.0,25.0,25.0,25.0,25.0,25.0,24.0,2.63,0.0,0.0,1.0,1781038805046700828
1781038805619041856,4.0707488153281e-6,57.29290318379182,103.13240025904793,0.003873079392153143,-0.001295261970185227,7.275003717988214e-7,-8.437695366618279e-6,0.005477119952237653,0.00008052393277929124,-0.008495823613606332,0.002453934583376193,-4.602226949087947e-6,0.3906570106992032,0.06915397787719019,0.9438416762508316,0.20981671778961397,0.8621297729512185,0.06814479751689512,25.0,25.0,25.0,25.0,25.0,25.0,24.0,2.544,0.0,0.0,1.0,1781038805564737388
1781038805719072731,4.0707488153281e-6,57.29290318379182,103.13240025904793,0.003873079392153143,-0.001295261970185227,7.275003717988214e-7,-8.437695366618279e-6,0.005477119952237653,0.00008052393277929124,-0.008495823613606332,0.002453934583376193,-4.602226949087947e-6,0.3906570106992032,0.06915397787719019,0.9438416762508316,0.20981671778961397,0.8621297729512185,0.06814479751689512,25.0,25.0,25.0,25.0,25.0,25.0,24.0,2.544,0.0,0.0,1.0,1781038805564737388
1781038805820493821,4.0707488153281e-6,57.29290318379182,103.13240025904793,0.003873079392153143,-0.001295261970185227,7.275003717988214e-7,-8.437695366618279e-6,0.005477119952237653,0.00008052393277929124,-0.008495823613606332,0.002453934583376193,-4.602226949087947e-6,0.3906570106992032,0.06915397787719019,0.9438416762508316,0.20981671778961397,0.8621297729512185,0.06814479751689512,25.0,25.0,25.0,25.0,25.0,25.0,24.0,2.544,0.0,0.0,1.0,1781038805564737388
1781038805918836610,3.8995375570672115e-6,57.29301685343685,103.1324019172984,0.003703239882720479,-0.0012445076375376203,6.340862918611311e-7,-8.069416437191141e-6,0.005437973778867645,0.00007892464995659777,-0.00792401566887937,0.002422694208864732,-4.404368020500743e-6,0.36525443977147454,0.07039114023503064,0.9233439860603234,0.20086590144970692,0.8357176761887876,0.06519978738490659,25.0,25.0,25.0,25.0,25.0,25.0,24.0,2.461,0.0,0.0,1.0,1781038805910662835
1781038806019919385,3.8995375570672115e-6,57.29301685343685,103.1324019172984,0.003703239882720479,-0.0012445076375376203,6.340862918611311e-7,-8.069416437191141e-6,0.005437973778867645,0.00007892464995659777,-0.00792401566887937,0.002422694208864732,-4.404368020500743e-6,0.36525443977147454,0.07039114023503064,0.9233439860603234,0.20086590144970692,0.8357176761887876,0.06519978738490659,25.0,25.0,25.0,25.0,25.0,25.0,24.0,2.461,0.0,0.0,1.0,1781038805910662835
1781038806118708416,3.8995375570672115e-6,57.29301685343685,103.1324019172984,0.003703239882720479,-0.0012445076375376203,6.340862918611311e-7,-8.069416437191141e-6,0.005437973778867645,0.00007892464995659777,-0.00792401566887937,0.002422694208864732,-4.404368020500743e-6,0.36525443977147454,0.07039114023503064,0.9233439860603234,0.20086590144970692,0.8357176761887876,0.06519978738490659,25.0,25.0,25.0,25.0,25.0,25.0,24.0,2.461,0.0,0.0,1.0,1781038805910662835
1781038806221560303,3.8995375570672115e-6,57.29301685343685,103.1324019172984,0.003703239882720479,-0.0012445076375376203,6.340862918611311e-7,-8.069416437191141e-6,0.005437973778867645,0.00007892464995659777,-0.00792401566887937,0.002422694208864732,-4.404368020500743e-6,0.36525443977147454,0.07039114023503064,0.9233439860603234,0.20086590144970692,0.8357176761887876,0.06519978738490659,25.0,25.0,25.0,25.0,25.0,25.0,24.0,2.461,0.0,0.0,1.0,1781038805910662835
1781038806318802637,3.7361966609417982e-6,57.2931293302021,103.13240353752084,0.0035452234327692307,-0.001194556432956161,5.448423223645879e-7,-7.685965560720508e-6,0.005369076795083805,0.00007695545323732412,-0.00735996413578044,0.0023794662615013655,-4.202918577449776e-6,0.34112696499912937,0.0716117365433992,0.902785106120387,0.192762761155705,0.8098743273649529,0.06253640032712476,25.0,25.0,25.0,25.0,25.0,25.0,24.0,2.381,0.0,0.0,1.0,1781038806291020395
1781038806418878136,3.7361966609417982e-6,57.2931293302021,103.13240353752084,0.0035452234327692307,-0.001194556432956161,5.448423223645879e-7,-7.685965560720508e-6,0.005369076795083805,0.00007695545323732412,-0.00735996413578044,0.0023794662615013655,-4.202918577449776e-6,0.34112696499912937,0.0716117365433992,0.902785106120387,0.192762761155705,0.8098743273649529,0.06253640032712476,25.0,25.0,25.0,25.0,25.0,25.0,24.0,2.381,0.0,0.0,1.0,1781038806291020395
1781038806518551310,3.7361966609417982e-6,57.2931293302021,103.13240353752084,0.0035452234327692307,-0.001194556432956161,5.448423223645879e-7,-7.685965560720508e-6,0.005369076795083805,0.00007695545323732412,-0.00735996413578044,0.0023794662615013655,-4.202918577449776e-6,0.34112696499912937,0.0716117365433992,0.902785106120387,0.192762761155705,0.8098743273649529,0.06253640032712476,25.0,25.0,25.0,25.0,25.0,25.0,24.0,2.381,0.0,0.0,1.0,1781038806291020395
1781038806619298797,3.7361966609417982e-6,57.2931293302021,103.13240353752084,0.0035452234327692307,-0.001194556432956161,5.448423223645879e-7,-7.685965560720508e-6,0.005369076795083805,0.00007695545323732412,-0.00735996413578044,0.0023794662615013655,-4.202918577449776e-6,0.34112696499912937,0.0716117365433992,0.902785106120387,0.192762761155705,0.8098743273649529,0.06253640032712476,25.0,25.0,25.0,25.0,25.0,25.0,24.0,2.381,0.0,0.0,1.0,1781038806291020395
1781038806723410165,3.580981394030735e-6,57.293240035202565,103.13240511264308,0.003398814912362136,-0.0011456397993521935,4.598203501920439e-7,-7.292178958140453e-6,0.005273703389474181,0.00007466683446813037,-0.0068079049948888744,0.002325713583741563,-3.999687299604647e-6,0.3182050696470725,0.07279647173094789,0.8822971459561895,0.1854737971357964,0.784681875852157,0.060143687774456694,25.0,25.0,25.0,25.0,25.0,25.0,24.0,2.304,0.0,0.0,1.0,1781038806694377408
1781038806825440791,3.580981394030735e-6,57.293240035202565,103.13240511264308,0.003398814912362136,-0.0011456397993521935,4.598203501920439e-7,-7.292178958140453e-6,0.005273703389474181,0.00007466683446813037,-0.0068079049948888744,0.002325713583741563,-3.999687299604647e-6,0.3182050696470725,0.07279647173094789,0.8822971459561895,0.1854737971357964,0.784681875852157,0.060143687774456694,25.0,25.0,25.0,25.0,25.0,25.0,24.0,2.304,0.0,0.0,1.0,1781038806694377408
1781038806925358914,3.580981394030735e-6,57.293240035202565,103.13240511264308,0.003398814912362136,-0.0011456397993521935,4.598203501920439e-7,-7.292178958140453e-6,0.005273703389474181,0.00007466683446813037,-0.0068079049948888744,0.002325713583741563,-3.999687299604647e-6,0.3182050696470725,0.07279647173094789,0.8822971459561895,0.1854737971357964,0.784681875852157,0.060143687774456694,25.0,25.0,25.0,25.0,25.0,25.0,24.0,2.304,0.0,0.0,1.0,1781038806694377408
1781038807024569721,3.580981394030735e-6,57.293240035202565,103.13240511264308,0.003398814912362136,-0.0011456397993521935,4.598203501920439e-7,-7.292178958140453e-6,0.005273703389474181,0.00007466683446813037,-0.0068079049948888744,0.002325713583741563,-3.999687299604647e-6,0.3182050696470725,0.07279647173094789,0.8822971459561895,0.1854737971357964,0.784681875852157,0.060143687774456694,25.0,25.0,25.0,25.0,25.0,25.0,24.0,2.304,0.0,0.0,1.0,1781038806694377408
1781038807125874305,3.434049240488173e-6,57.29334845762575,103.13240663661892,0.0032637155463875445,-0.0010979588837462485,3.7903687740629617e-7,-6.892647986251229e-6,0.005155111003720844,0.00007210716238378703,-0.0062717005310720395,0.002262882204666331,-3.7962994599492446e-6,0.29642147888045645,0.07393019967772287,0.8619984831109687,0.17896031918049146,0.7602128062050681,0.058008950359124074,25.0,25.0,25.0,25.0,25.0,25.0,24.0,2.23,0.0,0.0,1.0,1781038807086012560
1781038807225440518,3.434049240488173e-6,57.29334845762575,103.13240663661892,0.0032637155463875445,-0.0010979588837462485,3.7903687740629617e-7,-6.892647986251229e-6,0.005155111003720844,0.00007210716238378703,-0.0062717005310720395,0.002262882204666331,-3.7962994599492446e-6,0.29642147888045645,0.07393019967772287,0.8619984831109687,0.17896031918049146,0.7602128062050681,0.058008950359124074,25.0,25.0,25.0,25.0,25.0,25.0,24.0,2.23,0.0,0.0,1.0,1781038807086012560
1781038807325238962,3.434049240488173e-6,57.29334845762575,103.13240663661892,0.0032637155463875445,-0.0010979588837462485,3.7903687740629617e-7,-6.892647986251229e-6,0.005155111003720844,0.00007210716238378703,-0.0062717005310720395,0.002262882204666331,-3.7962994599492446e-6,0.29642147888045645,0.07393019967772287,0.8619984831109687,0.17896031918049146,0.7602128062050681,0.058008950359124074,25.0,25.0,25.0,25.0,25.0,25.0,24.0,2.23,0.0,0.0,1.0,1781038807086012560
1781038807425329616,3.434049240488173e-6,57.29334845762575,103.13240663661892,0.0032637155463875445,-0.0010979588837462485,3.7903687740629617e-7,-6.892647986251229e-6,0.005155111003720844,0.00007210716238378703,-0.0062717005310720395,0.002262882204666331,-3.7962994599492446e-6,0.29642147888045645,0.07393019967772287,0.8619984831109687,0.17896031918049146,0.7602128062050681,0.058008950359124074,25.0,25.0,25.0,25.0,25.0,25.0,24.0,2.23,0.0,0.0,1.0,1781038807086012560
1781038807524843353,3.2954656235336608e-6,57.29345415389338,103.13240810438012,0.0031395511523008364,-0.001051685102441618,3.0247680170624885e-7,-6.491670868708252e-6,0.005016502010485394,0.00006932239758355626,-0.0057548045433272795,0.0021923844783799085,-3.594200578543339e-6,0.2757115455457134,0.07500143176279558,0.8419936868305605,0.17317924536876422,0.7365295317385118,0.05611800317698564,25.0,25.0,25.0,25.0,25.0,25.0,24.0,2.159,0.0,0.0,1.0,1781038807441462840
1781038807624531883,3.2954656235336608e-6,57.29345415389338,103.13240810438012,0.0031395511523008364,-0.001051685102441618,3.0247680170624885e-7,-6.491670868708252e-6,0.005016502010485394,0.00006932239758355626,-0.0057548045433272795,0.0021923844783799085,-3.594200578543339e-6,0.2757115455457134,0.07500143176279558,0.8419936868305605,0.17317924536876422,0.7365295317385118,0.05611800317698564,25.0,25.0,25.0,25.0,25.0,25.0,24.0,2.159,0.0,0.0,1.0,1781038807441462840
1781038807724815449,3.2954656235336608e-6,57.29345415389338,103.13240810438012,0.0031395511523008364,-0.001051685102441618,3.0247680170624885e-7,-6.491670868708252e-6,0.005016502010485394,0.00006932239758355626,-0.0057548045433272795,0.0021923844783799085,-3.594200578543339e-6,0.2757115455457134,0.07500143176279558,0.8419936868305605,0.17317924536876422,0.7365295317385118,0.05611800317698564,25.0,25.0,25.0,25.0,25.0,25.0,24.0,2.159,0.0,0.0,1.0,1781038807441462840
1781038807824532673,3.2954656235336608e-6,57.29345415389338,103.13240810438012,0.0031395511523008364,-0.001051685102441618,3.0247680170624885e-7,-6.491670868708252e-6,0.005016502010485394,0.00006932239758355626,-0.0057548045433272795,0.0021923844783799085,-3.594200578543339e-6,0.2757115455457134,0.07500143176279558,0.8419936868305605,0.17317924536876422,0.7365295317385118,0.05611800317698564,25.0,25.0,25.0,25.0,25.0,25.0,24.0,2.159,0.0,0.0,1.0,1781038807441462840
1781038807929880593,3.1652105048520217e-6,57.2935567460935,103.13240951178352,0.0030258809724507145,-0.001006961026935776,2.3009708574132558e-7,-6.093214634765283e-6,0.004860990739786142,0.00006635588123839665,-0.005260237927499029,0.002115584654008007,-3.394662773990881e-6,0.25601352588450804,0.07600186814908372,0.8223736234245336,0.16808391035500342,0.7136841869510318,0.05445544468273214,25.0,25.0,25.0,25.0,25.0,25.0,24.0,2.091,0.0,0.0,1.0,1781038807833343076
1781038808030628655,3.1652105048520217e-6,57.2935567460935,103.13240951178352,0.0030258809724507145,-0.001006961026935776,2.3009708574132558e-7,-6.093214634765283e-6,0.004860990739786142,0.00006635588123839665,-0.005260237927499029,0.002115584654008007,-3.394662773990881e-6,0.25601352588450804,0.07600186814908372,0.8223736234245336,0.16808391035500342,0.7136841869510318,0.05445544468273214,25.0,25.0,25.0,25.0,25.0,25.0,24.0,2.091,0.0,0.0,1.0,1781038807833343076
1781038808131364821,3.1652105048520217e-6,57.2935567460935,103.13240951178352,0.0030258809724507145,-0.001006961026935776,2.3009708574132558e-7,-6.093214634765283e-6,0.004860990739786142,0.00006635588123839665,-0.005260237927499029,0.002115584654008007,-3.394662773990881e-6,0.25601352588450804,0.07600186814908372,0.8223736234245336,0.16808391035500342,0.7136841869510318,0.05445544468273214,25.0,25.0,25.0,25.0,25.0,25.0,24.0,2.091,0.0,0.0,1.0,1781038807833343076
1781038808230738539,3.1652105048520217e-6,57.2935567460935,103.13240951178352,0.0030258809724507145,-0.001006961026935776,2.3009708574132558e-7,-6.093214634765283e-6,0.004860990739786142,0.00006635588123839665,-0.005260237927499029,0.002115584654008007,-3.394662773990881e-6,0.25601352588450804,0.07600186814908372,0.8223736234245336,0.16808391035500342,0.7136841869510318,0.05445544468273214,25.0,25.0,25.0,25.0,25.0,25.0,24.0,2.091,0.0,0.0,1.0,1781038807833343076
1781038808330709539,3.0431856539937025e-6,57.293655919787696,103.13241085555453,0.00292220689002144,-0.0009639015411293392,1.618302683914494e-7,-5.700886824097116e-6,0.0046915754326729165,0.00006324818721981988,-0.004790574192538605,0.0020337867774643556,-3.1987930822304674e-6,0.23726876067890929,0.07692595781569819,0.8032157245722632,0.16362486717238436,0.6917186038794858,0.053004923846555745,25.0,25.0,25.0,25.0,25.0,25.0,24.0,2.026,0.0,0.0,1.0,1781038808233211946
1781038808431081974,3.0431856539937025e-6,57.293655919787696,103.13241085555453,0.00292220689002144,-0.0009639015411293392,1.618302683914494e-7,-5.700886824097116e-6,0.0046915754326729165,0.00006324818721981988,-0.004790574192538605,0.0020337867774643556,-3.1987930822304674e-6,0.23726876067890929,0.07692595781569819,0.8032157245722632,0.16362486717238436,0.6917186038794858,0.053004923846555745,25.0,25.0,25.0,25.0,25.0,25.0,24.0,2.026,0.0,0.0,1.0,1781038808233211946
1781038808531276770,3.0431856539937025e-6,57.293655919787696,103.13241085555453,0.00292220689002144,-0.0009639015411293392,1.618302683914494e-7,-5.700886824097116e-6,0.0046915754326729165,0.00006324818721981988,-0.004790574192538605,0.0020337867774643556,-3.1987930822304674e-6,0.23726876067890929,0.07692595781569819,0.8032157245722632,0.16362486717238436,0.6917186038794858,0.053004923846555745,25.0,25.0,25.0,25.0,25.0,25.0,24.0,2.026,0.0,0.0,1.0,1781038808233211946
1781038808631273360,3.0431856539937025e-6,57.293655919787696,103.13241085555453,0.00292220689002144,-0.0009639015411293392,1.618302683914494e-7,-5.700886824097116e-6,0.0046915754326729165,0.00006324818721981988,-0.004790574192538605,0.0020337867774643556,-3.1987930822304674e-6,0.23726876067890929,0.07692595781569819,0.8032157245722632,0.16362486717238436,0.6917186038794858,0.053004923846555745,25.0,25.0,25.0,25.0,25.0,25.0,24.0,2.026,0.0,0.0,1.0,1781038808233211946
1781038808732821137,2.929222391498614e-6,57.29375142129287,103.13241213322814,0.0028279828293221497,-0.0009225952227104524,9.758778495987806e-8,-5.317916364310913e-6,0.004511114870116277,0.00006003703102788791,-0.0043479342715949335,0.001948224805770408,-3.0075431179174574e-6,0.2194217766619299,0.07777049143702384,0.7845843990615953,0.15975066829361326,0.6706644551485546,0.05174940078707887,25.0,25.0,25.0,25.0,25.0,25.0,24.0,1.964,0.0,0.0,1.0,1781038808638112823
1781038808841702611,2.929222391498614e-6,57.29375142129287,103.13241213322814,0.0028279828293221497,-0.0009225952227104524,9.758778495987806e-8,-5.317916364310913e-6,0.004511114870116277,0.00006003703102788791,-0.0043479342715949335,0.001948224805770408,-3.0075431179174574e-6,0.2194217766619299,0.07777049143702384,0.7845843990615953,0.15975066829361326,0.6706644551485546,0.05174940078707887,25.0,25.0,25.0,25.0,25.0,25.0,24.0,1.964,0.0,0.0,1.0,1781038808638112823
1781038808943041534,2.929222391498614e-6,57.29375142129287,103.13241213322814,0.0028279828293221497,-0.0009225952227104524,9.758778495987806e-8,-5.317916364310913e-6,0.004511114870116277,0.00006003703102788791,-0.0043479342715949335,0.001948224805770408,-3.0075431179174574e-6,0.2194217766619299,0.07777049143702384,0.7845843990615953,0.15975066829361326,0.6706644551485546,0.05174940078707887,25.0,25.0,25.0,25.0,25.0,25.0,24.0,1.964,0.0,0.0,1.0,1781038808638112823
1781038809049930056,2.823089623373311e-6,57.29384305453161,103.13241334308896,0.0027426241565552795,-0.0008831059042712857,3.726307533320113e-8,-4.9471429091833565e-6,0.004322309409811761,0.000056757222524791114,-0.0039339898269912296,0.001860054800297604,-2.8217195340259094e-6,0.20242032207777785,0.07853422955183056,0.7665315680581194,0.15640861364448744,0.6505435447971674,0.050671396739576456,25.0,25.0,25.0,25.0,25.0,25.0,24.0,1.905,0.0,0.0,1.0,1781038809021228671
1781038809150593119,2.823089623373311e-6,57.29384305453161,103.13241334308896,0.0027426241565552795,-0.0008831059042712857,3.726307533320113e-8,-4.9471429091833565e-6,0.004322309409811761,0.000056757222524791114,-0.0039339898269912296,0.001860054800297604,-2.8217195340259094e-6,0.20242032207777785,0.07853422955183056,0.7665315680581194,0.15640861364448744,0.6505435447971674,0.050671396739576456,25.0,25.0,25.0,25.0,25.0,25.0,24.0,1.905,0.0,0.0,1.0,1781038809021228671
1781038809254016372,2.823089623373311e-6,57.29384305453161,103.13241334308896,0.0027426241565552795,-0.0008831059042712857,3.726307533320113e-8,-4.9471429091833565e-6,0.004322309409811761,0.000056757222524791114,-0.0039339898269912296,0.001860054800297604,-2.8217195340259094e-6,0.20242032207777785,0.07853422955183056,0.7665315680581194,0.15640861364448744,0.6505435447971674,0.050671396739576456,25.0,25.0,25.0,25.0,25.0,25.0,24.0,1.905,0.0,0.0,1.0,1781038809021228671
1781038809351012802,2.823089623373311e-6,57.29384305453161,103.13241334308896,0.0027426241565552795,-0.0008831059042712857,3.726307533320113e-8,-4.9471429091833565e-6,0.004322309409811761,0.000056757222524791114,-0.0039339898269912296,0.001860054800297604,-2.8217195340259094e-6,0.20242032207777785,0.07853422955183056,0.7665315680581194,0.15640861364448744,0.6505435447971674,0.050671396739576456,25.0,25.0,25.0,25.0,25.0,25.0,24.0,1.905,0.0,0.0,1.0,1781038809021228671
1781038809451208308,2.7245020005796462e-6,57.29393067753957,103.13241448411029,0.002665516915487547,-0.0008454743726458412,-1.92655310781071e-8,-4.591013833101707e-6,0.004127686137765919,0.00005344066043527164,-0.0035499741248294003,0.0017703490532207384,-2.6419948521342368e-6,0.18621534911555787,0.07921756706025032,0.7490973040121368,0.15354545531182742,0.6313682269152905,0.04975322989506993,25.0,25.0,25.0,25.0,25.0,25.0,24.0,1.849,0.0,0.0,1.0,1781038809398728149
1781038809551245871,2.7245020005796462e-6,57.29393067753957,103.13241448411029,0.002665516915487547,-0.0008454743726458412,-1.92655310781071e-8,-4.591013833101707e-6,0.004127686137765919,0.00005344066043527164,-0.0035499741248294003,0.0017703490532207384,-2.6419948521342368e-6,0.18621534911555787,0.07921756706025032,0.7490973040121368,0.15354545531182742,0.6313682269152905,0.04975322989506993,25.0,25.0,25.0,25.0,25.0,25.0,24.0,1.849,0.0,0.0,1.0,1781038809398728149
1781038809650807608,2.7245020005796462e-6,57.29393067753957,103.13241448411029,0.002665516915487547,-0.0008454743726458412,-1.92655310781071e-8,-4.591013833101707e-6,0.004127686137765919,0.00005344066043527164,-0.0035499741248294003,0.0017703490532207384,-2.6419948521342368e-6,0.18621534911555787,0.07921756706025032,0.7490973040121368,0.15354545531182742,0.6313682269152905,0.04975322989506993,25.0,25.0,25.0,25.0,25.0,25.0,24.0,1.849,0.0,0.0,1.0,1781038809398728149
1781038809761912481,2.7245020005796462e-6,57.29393067753957,103.13241448411029,0.002665516915487547,-0.0008454743726458412,-1.92655310781071e-8,-4.591013833101707e-6,0.004127686137765919,0.00005344066043527164,-0.0035499741248294003,0.0017703490532207384,-2.6419948521342368e-6,0.18621534911555787,0.07921756706025032,0.7490973040121368,0.15354545531182742,0.6313682269152905,0.04975322989506993,25.0,25.0,25.0,25.0,25.0,25.0,24.0,1.849,0.0,0.0,1.0,1781038809398728149
1781038809862652857,2.6331280548440892e-6,57.294014198711494,103.13241555589376,0.0025960267528279306,-0.000809720168148501,-7.213215669560042e-8,-4.2515880106886865e-6,0.00392958782827574,0.00005011635399964091,-0.003196699470361034,0.0016800919901235674,-2.4689183070233533e-6,0.17076095464331523,0.07982223389968426,0.7323105537105928,0.15110805075433456,0.6131419316865937,0.048977234331361,25.0,25.0,25.0,25.0,25.0,25.0,24.0,1.796,0.0,0.0,1.0,1781038809761558757
1781038809965417384,2.6331280548440892e-6,57.294014198711494,103.13241555589376,0.0025960267528279306,-0.000809720168148501,-7.213215669560042e-8,-4.2515880106886865e-6,0.00392958782827574,0.00005011635399964091,-0.003196699470361034,0.0016800919901235674,-2.4689183070233533e-6,0.17076095464331523,0.07982223389968426,0.7323105537105928,0.15110805075433456,0.6131419316865937,0.048977234331361,25.0,25.0,25.0,25.0,25.0,25.0,24.0,1.796,0.0,0.0,1.0,1781038809761558757
1781038810062626463,2.6331280548440892e-6,57.294014198711494,103.13241555589376,0.0025960267528279306,-0.000809720168148501,-7.213215669560042e-8,-4.2515880106886865e-6,0.00392958782827574,0.00005011635399964091,-0.003196699470361034,0.0016800919901235674,-2.4689183070233533e-6,0.17076095464331523,0.07982223389968426,0.7323105537105928,0.15110805075433456,0.6131419316865937,0.048977234331361,25.0,25.0,25.0,25.0,25.0,25.0,24.0,1.796,0.0,0.0,1.0,1781038809761558757
1781038810162909145,2.548598180670458e-6,57.29409357286156,103.13241655860996,0.002533507409755806,-0.0007758434487163513,-1.214809404890238e-7,-3.930545478160523e-6,0.003730165395451438,0.000046810474855583945,-0.0028745801502189704,0.0015901776868955397,-2.302926455367121e-6,0.1560142892990085,0.08035103084236973,0.7161899266822495,0.1490439583435277,0.595859778524468,0.04832595992822319,25.0,25.0,25.0,25.0,25.0,25.0,24.0,1.746,0.0,0.0,1.0,1781038810139386572
1781038810269909554,2.548598180670458e-6,57.29409357286156,103.13241655860996,0.002533507409755806,-0.0007758434487163513,-1.214809404890238e-7,-3.930545478160523e-6,0.003730165395451438,0.000046810474855583945,-0.0028745801502189704,0.0015901776868955397,-2.302926455367121e-6,0.1560142892990085,0.08035103084236973,0.7161899266822495,0.1490439583435277,0.595859778524468,0.04832595992822319,25.0,25.0,25.0,25.0,25.0,25.0,24.0,1.746,0.0,0.0,1.0,1781038810139386572
1781038810371234050,2.548598180670458e-6,57.29409357286156,103.13241655860996,0.002533507409755806,-0.0007758434487163513,-1.214809404890238e-7,-3.930545478160523e-6,0.003730165395451438,0.000046810474855583945,-0.0028745801502189704,0.0015901776868955397,-2.302926455367121e-6,0.1560142892990085,0.08035103084236973,0.7161899266822495,0.1490439583435277,0.595859778524468,0.04832595992822319,25.0,25.0,25.0,25.0,25.0,25.0,24.0,1.746,0.0,0.0,1.0,1781038810139386572
1781038810471109171,2.548598180670458e-6,57.29409357286156,103.13241655860996,0.002533507409755806,-0.0007758434487163513,-1.214809404890238e-7,-3.930545478160523e-6,0.003730165395451438,0.000046810474855583945,-0.0028745801502189704,0.0015901776868955397,-2.302926455367121e-6,0.1560142892990085,0.08035103084236973,0.7161899266822495,0.1490439583435277,0.595859778524468,0.04832595992822319,25.0,25.0,25.0,25.0,25.0,25.0,24.0,1.746,0.0,0.0,1.0,1781038810139386572
1781038810571022133,2.470512352480177e-6,57.294168797166456,103.13241749293978,0.002477308678189658,-0.00074382688741458,-1.6746381860451405e-7,-3.629202061415415e-6,0.003531373512337726,0.00004354642773612517,-0.002583659817325778,0.001501408834149999,-2.144353357035754e-6,0.14193544360850885,0.08080759863341423,0.7007445311747231,0.14730197098186773,0.5795092565717975,0.04778235179910352,25.0,25.0,25.0,25.0,25.0,25.0,24.0,1.698,0.0,0.0,1.0,1781038810524566967
1781038810677729770,2.470512352480177e-6,57.294168797166456,103.13241749293978,0.002477308678189658,-0.00074382688741458,-1.6746381860451405e-7,-3.629202061415415e-6,0.003531373512337726,0.00004354642773612517,-0.002583659817325778,0.001501408834149999,-2.144353357035754e-6,0.14193544360850885,0.08080759863341423,0.7007445311747231,0.14730197098186773,0.5795092565717975,0.04778235179910352,25.0,25.0,25.0,25.0,25.0,25.0,24.0,1.698,0.0,0.0,1.0,1781038810524566967
1781038810779349876,2.470512352480177e-6,57.294168797166456,103.13241749293978,0.002477308678189658,-0.00074382688741458,-1.6746381860451405e-7,-3.629202061415415e-6,0.003531373512337726,0.00004354642773612517,-0.002583659817325778,0.001501408834149999,-2.144353357035754e-6,0.14193544360850885,0.08080759863341423,0.7007445311747231,0.14730197098186773,0.5795092565717975,0.04778235179910352,25.0,25.0,25.0,25.0,25.0,25.0,24.0,1.698,0.0,0.0,1.0,1781038810524566967
1781038810882041915,2.470512352480177e-6,57.294168797166456,103.13241749293978,0.002477308678189658,-0.00074382688741458,-1.6746381860451405e-7,-3.629202061415415e-6,0.003531373512337726,0.00004354642773612517,-0.002583659817325778,0.001501408834149999,-2.144353357035754e-6,0.14193544360850885,0.08080759863341423,0.7007445311747231,0.14730197098186773,0.5795092565717975,0.04778235179910352,25.0,25.0,25.0,25.0,25.0,25.0,24.0,1.698,0.0,0.0,1.0,1781038810524566967
1781038810982641020,2.3984474846872364e-6,57.29423990705327,103.13241836001824,0.0024267837423268823,-0.0007136375752356721,-2.1023851044938529e-7,-3.348528070410693e-6,0.003334969066625309,0.00004034493704054991,-0.00232364227619267,0.0014144969815126011,-1.9934402112819753e-6,0.1284873184453376,0.08119621818405703,0.6859748411630755,0.14583258531897222,0.5640709538160764,0.047329908364458655,25.0,25.0,25.0,25.0,25.0,25.0,24.0,1.653,0.0,0.0,1.0,1781038810973768992
1781038811081908055,2.3984474846872364e-6,57.29423990705327,103.13241836001824,0.0024267837423268823,-0.0007136375752356721,-2.1023851044938529e-7,-3.348528070410693e-6,0.003334969066625309,0.00004034493704054991,-0.00232364227619267,0.0014144969815126011,-1.9934402112819753e-6,0.1284873184453376,0.08119621818405703,0.6859748411630755,0.14583258531897222,0.5640709538160764,0.047329908364458655,25.0,25.0,25.0,25.0,25.0,25.0,24.0,1.653,0.0,0.0,1.0,1781038810973768992
1781038811179126438,2.3984474846872364e-6,57.29423990705327,103.13241836001824,0.0024267837423268823,-0.0007136375752356721,-2.1023851044938529e-7,-3.348528070410693e-6,0.003334969066625309,0.00004034493704054991,-0.00232364227619267,0.0014144969815126011,-1.9934402112819753e-6,0.1284873184453376,0.08119621818405703,0.6859748411630755,0.14583258531897222,0.5640709538160764,0.047329908364458655,25.0,25.0,25.0,25.0,25.0,25.0,24.0,1.653,0.0,0.0,1.0,1781038810973768992
1781038811279250778,2.3984474846872364e-6,57.29423990705327,103.13241836001824,0.0024267837423268823,-0.0007136375752356721,-2.1023851044938529e-7,-3.348528070410693e-6,0.003334969066625309,0.00004034493704054991,-0.00232364227619267,0.0014144969815126011,-1.9934402112819753e-6,0.1284873184453376,0.08119621818405703,0.6859748411630755,0.14583258531897222,0.5640709538160764,0.047329908364458655,25.0,25.0,25.0,25.0,25.0,25.0,24.0,1.653,0.0,0.0,1.0,1781038810973768992
1781038811379333573,2.3984474846872364e-6,57.29423990705327,103.13241836001824,0.0024267837423268823,-0.0007136375752356721,-2.1023851044938529e-7,-3.348528070410693e-6,0.003334969066625309,0.00004034493704054991,-0.00232364227619267,0.0014144969815126011,-1.9934402112819753e-6,0.1284873184453376,0.08119621818405703,0.6859748411630755,0.14583258531897222,0.5640709538160764,0.047329908364458655,25.0,25.0,25.0,25.0,25.0,25.0,24.0,1.653,0.0,0.0,1.0,1781038810973768992
1781038811479195588,2.3319643608755955e-6,57.2943069720872,103.1324191613796,0.002381295847128812,-0.0006852289045957132,-2.499666979332842e-7,-3.089170196186924e-6,0.0031425121303737783,0.00003722414786114579,-0.002093924675674491,0.0013300638973867624,-1.8503443798752557e-6,0.11563548586004456,0.08152163921443327,0.6718735792426698,0.14458840568291725,0.5495193173655573,0.04695281772687306,25.0,25.0,25.0,25.0,25.0,25.0,24.0,1.61,0.0,0.0,1.0,1781038811395180814
1781038811579347535,2.3319643608755955e-6,57.2943069720872,103.1324191613796,0.002381295847128812,-0.0006852289045957132,-2.499666979332842e-7,-3.089170196186924e-6,0.0031425121303737783,0.00003722414786114579,-0.002093924675674491,0.0013300638973867624,-1.8503443798752557e-6,0.11563548586004456,0.08152163921443327,0.6718735792426698,0.14458840568291725,0.5495193173655573,0.04695281772687306,25.0,25.0,25.0,25.0,25.0,25.0,24.0,1.61,0.0,0.0,1.0,1781038811395180814
1781038811681863620,2.3319643608755955e-6,57.2943069720872,103.1324191613796,0.002381295847128812,-0.0006852289045957132,-2.499666979332842e-7,-3.089170196186924e-6,0.0031425121303737783,0.00003722414786114579,-0.002093924675674491,0.0013300638973867624,-1.8503443798752557e-6,0.11563548586004456,0.08152163921443327,0.6718735792426698,0.14458840568291725,0.5495193173655573,0.04695281772687306,25.0,25.0,25.0,25.0,25.0,25.0,24.0,1.61,0.0,0.0,1.0,1781038811395180814
1781038811782152135,2.27061407564206e-6,57.29437009190733,103.1324198989051,0.0023402242552626545,-0.000658542412322947,-2.868123847674619e-7,-2.8514757951631094e-6,0.002955369120567163,0.000034199737281942904,-0.0018936321863603088,0.0012486438819759205,-1.7151477746717731e-6,0.10334804511678608,0.08178893454272725,0.6584266018214999,0.14352448324208908,0.5358234289833268,0.04663607247805609,25.0,25.0,25.0,25.0,25.0,25.0,24.0,1.57,0.0,0.0,1.0,1781038811770604607
1781038811882270749,2.27061407564206e-6,57.29437009190733,103.1324198989051,0.0023402242552626545,-0.000658542412322947,-2.868123847674619e-7,-2.8514757951631094e-6,0.002955369120567163,0.000034199737281942904,-0.0018936321863603088,0.0012486438819759205,-1.7151477746717731e-6,0.10334804511678608,0.08178893454272725,0.6584266018214999,0.14352448324208908,0.5358234289833268,0.04663607247805609,25.0,25.0,25.0,25.0,25.0,25.0,24.0,1.57,0.0,0.0,1.0,1781038811770604607
1781038811979290816,2.27061407564206e-6,57.29437009190733,103.1324198989051,0.0023402242552626545,-0.000658542412322947,-2.868123847674619e-7,-2.8514757951631094e-6,0.002955369120567163,0.000034199737281942904,-0.0018936321863603088,0.0012486438819759205,-1.7151477746717731e-6,0.10334804511678608,0.08178893454272725,0.6584266018214999,0.14352448324208908,0.5358234289833268,0.04663607247805609,25.0,25.0,25.0,25.0,25.0,25.0,24.0,1.57,0.0,0.0,1.0,1781038811770604607
1781038812079505541,2.27061407564206e-6,57.29437009190733,103.1324198989051,0.0023402242552626545,-0.000658542412322947,-2.868123847674619e-7,-2.8514757951631094e-6,0.002955369120567163,0.000034199737281942904,-0.0018936321863603088,0.0012486438819759205,-1.7151477746717731e-6,0.10334804511678608,0.08178893454272725,0.6584266018214999,0.14352448324208908,0.5358234289833268,0.04663607247805609,25.0,25.0,25.0,25.0,25.0,25.0,24.0,1.57,0.0,0.0,1.0,1781038811770604607
1781038812180499481,2.21394394882379e-6,57.29442939225228,103.13242057477308,0.002302969472164586,-0.0006335095642100579,-3.209404225373417e-7,-2.635518813726072e-6,0.0027747178418758255,0.00003128503283072038,-0.0017216533275937014,0.0011706868800748097,-1.5878646108624987e-6,0.09159547770076844,0.08200337718346021,0.6456137746095818,0.1425985920993341,0.5229477816685097,0.046365563467890045,25.0,25.0,25.0,25.0,25.0,25.0,24.0,1.531,0.0,0.0,1.0,1781038812171119388
1781038812278507184,2.21394394882379e-6,57.29442939225228,103.13242057477308,0.002302969472164586,-0.0006335095642100579,-3.209404225373417e-7,-2.635518813726072e-6,0.0027747178418758255,0.00003128503283072038,-0.0017216533275937014,0.0011706868800748097,-1.5878646108624987e-6,0.09159547770076844,0.08200337718346021,0.6456137746095818,0.1425985920993341,0.5229477816685097,0.046365563467890045,25.0,25.0,25.0,25.0,25.0,25.0,24.0,1.531,0.0,0.0,1.0,1781038812171119388
1781038812379291064,2.21394394882379e-6,57.29442939225228,103.13242057477308,0.002302969472164586,-0.0006335095642100579,-3.209404225373417e-7,-2.635518813726072e-6,0.0027747178418758255,0.00003128503283072038,-0.0017216533275937014,0.0011706868800748097,-1.5878646108624987e-6,0.09159547770076844,0.08200337718346021,0.6456137746095818,0.1425985920993341,0.5229477816685097,0.046365563467890045,25.0,25.0,25.0,25.0,25.0,25.0,24.0,1.531,0.0,0.0,1.0,1781038812171119388
1781038812480578492,2.21394394882379e-6,57.29442939225228,103.13242057477308,0.002302969472164586,-0.0006335095642100579,-3.209404225373417e-7,-2.635518813726072e-6,0.0027747178418758255,0.00003128503283072038,-0.0017216533275937014,0.0011706868800748097,-1.5878646108624987e-6,0.09159547770076844,0.08200337718346021,0.6456137746095818,0.1425985920993341,0.5229477816685097,0.046365563467890045,25.0,25.0,25.0,25.0,25.0,25.0,24.0,1.531,0.0,0.0,1.0,1781038812171119388
1781038812578908985,2.1615028864990355e-6,57.29448502111128,103.1324211914114,0.002268957735075553,-0.0006100534663083037,-3.525151908207795e-7,-2.4411266789078984e-6,0.0026015541131119476,0.00002849113446739208,-0.0015766752069079164,0.001096562247847285,-1.4684485667993562e-6,0.0803505041142976,0.08217033746008436,0.6334098280325815,0.14177144499566183,0.5108530448677031,0.04612815339594134,25.0,25.0,25.0,25.0,25.0,25.0,24.0,1.495,0.0,0.0,1.0,1781038812557656676
1781038812678819307,2.1615028864990355e-6,57.29448502111128,103.1324211914114,0.002268957735075553,-0.0006100534663083037,-3.525151908207795e-7,-2.4411266789078984e-6,0.0026015541131119476,0.00002849113446739208,-0.0015766752069079164,0.001096562247847285,-1.4684485667993562e-6,0.0803505041142976,0.08217033746008436,0.6334098280325815,0.14177144499566183,0.5108530448677031,0.04612815339594134,25.0,25.0,25.0,25.0,25.0,25.0,24.0,1.495,0.0,0.0,1.0,1781038812557656676
1781038812781277680,2.1615028864990355e-6,57.29448502111128,103.1324211914114,0.002268957735075553,-0.0006100534663083037,-3.525151908207795e-7,-2.4411266789078984e-6,0.0026015541131119476,0.00002849113446739208,-0.0015766752069079164,0.001096562247847285,-1.4684485667993562e-6,0.0803505041142976,0.08217033746008436,0.6334098280325815,0.14177144499566183,0.5108530448677031,0.04612815339594134,25.0,25.0,25.0,25.0,25.0,25.0,24.0,1.495,0.0,0.0,1.0,1781038812557656676
1781038812878904057,2.1615028864990355e-6,57.29448502111128,103.1324211914114,0.002268957735075553,-0.0006100534663083037,-3.525151908207795e-7,-2.4411266789078984e-6,0.0026015541131119476,0.00002849113446739208,-0.0015766752069079164,0.001096562247847285,-1.4684485667993562e-6,0.0803505041142976,0.08217033746008436,0.6334098280325815,0.14177144499566183,0.5108530448677031,0.04612815339594134,25.0,25.0,25.0,25.0,25.0,25.0,24.0,1.495,0.0,0.0,1.0,1781038812557656676
1781038812980584903,2.112846176191111e-6,57.29453714502987,103.13242175145278,0.0022376447759599413,-0.0005880904910496058,-3.816994193574347e-7,-2.2679075608489475e-6,0.002436699700437375,0.000025827044428163675,-0.0014572180390552583,0.0010265630378262283,-1.356799381708033e-6,0.06958794446441949,0.08229519746448898,0.6217851838013305,0.14100685206916558,0.49949680771444593,0.04591173134716079,25.0,25.0,25.0,25.0,25.0,25.0,24.0,1.46,0.0,0.0,1.0,1781038812884615881
1781038813078891434,2.112846176191111e-6,57.29453714502987,103.13242175145278,0.0022376447759599413,-0.0005880904910496058,-3.816994193574347e-7,-2.2679075608489475e-6,0.002436699700437375,0.000025827044428163675,-0.0014572180390552583,0.0010265630378262283,-1.356799381708033e-6,0.06958794446441949,0.08229519746448898,0.6217851838013305,0.14100685206916558,0.49949680771444593,0.04591173134716079,25.0,25.0,25.0,25.0,25.0,25.0,24.0,1.46,0.0,0.0,1.0,1781038812884615881
1781038813178637491,2.112846176191111e-6,57.29453714502987,103.13242175145278,0.0022376447759599413,-0.0005880904910496058,-3.816994193574347e-7,-2.2679075608489475e-6,0.002436699700437375,0.000025827044428163675,-0.0014572180390552583,0.0010265630378262283,-1.356799381708033e-6,0.06958794446441949,0.08229519746448898,0.6217851838013305,0.14100685206916558,0.49949680771444593,0.04591173134716079,25.0,25.0,25.0,25.0,25.0,25.0,24.0,1.46,0.0,0.0,1.0,1781038812884615881
1781038813281776644,2.067539715050105e-6,57.29458594559464,103.13242225769268,0.0022085188800791996,-0.0005675318089694589,-4.0865314134996633e-7,-2.115277497571413e-6,0.002280811292879387,0.00002329979629462821,-0.001361668417772616,0.0009609106787330072,-1.2527689551967215e-6,0.059284584163704426,0.08238328039089102,0.6107067454013656,0.1402718266885292,0.4888342914767635,0.045705249590049915,25.0,25.0,25.0,25.0,25.0,25.0,24.0,1.427,0.0,0.0,1.0,1781038813186473469
1781038813378994787,2.067539715050105e-6,57.29458594559464,103.13242225769268,0.0022085188800791996,-0.0005675318089694589,-4.0865314134996633e-7,-2.115277497571413e-6,0.002280811292879387,0.00002329979629462821,-0.001361668417772616,0.0009609106787330072,-1.2527689551967215e-6,0.059284584163704426,0.08238328039089102,0.6107067454013656,0.1402718266885292,0.4888342914767635,0.045705249590049915,25.0,25.0,25.0,25.0,25.0,25.0,24.0,1.427,0.0,0.0,1.0,1781038813186473469
1781038813479420407,2.067539715050105e-6,57.29458594559464,103.13242225769268,0.0022085188800791996,-0.0005675318089694589,-4.0865314134996633e-7,-2.115277497571413e-6,0.002280811292879387,0.00002329979629462821,-0.001361668417772616,0.0009609106787330072,-1.2527689551967215e-6,0.059284584163704426,0.08238328039089102,0.6107067454013656,0.1402718266885292,0.4888342914767635,0.045705249590049915,25.0,25.0,25.0,25.0,25.0,25.0,24.0,1.427,0.0,0.0,1.0,1781038813186473469
1781038813579055507,2.025163679405655e-6,57.294631616115105,103.1324227130498,0.002181103271668306,-0.0005482848192398647,-4.335327681224406e-7,-1.9824869501913345e-6,0.0021343902841292053,0.00002091458479916013,-0.0012883109166076016,0.0008997599366021813,-1.1561669966666776e-6,0.049419045507473794,0.08243979247492253,0.6001386467406578,0.13953664277736902,0.4788190241105281,0.045498744092861865,25.0,25.0,25.0,25.0,25.0,25.0,24.0,1.396,0.0,0.0,1.0,1781038813518695306
1781038813678783544,2.025163679405655e-6,57.294631616115105,103.1324227130498,0.002181103271668306,-0.0005482848192398647,-4.335327681224406e-7,-1.9824869501913345e-6,0.0021343902841292053,0.00002091458479916013,-0.0012883109166076016,0.0008997599366021813,-1.1561669966666776e-6,0.049419045507473794,0.08243979247492253,0.6001386467406578,0.13953664277736902,0.4788190241105281,0.045498744092861865,25.0,25.0,25.0,25.0,25.0,25.0,24.0,1.396,0.0,0.0,1.0,1781038813518695306
1781038813779135044,2.025163679405655e-6,57.294631616115105,103.1324227130498,0.002181103271668306,-0.0005482848192398647,-4.335327681224406e-7,-1.9824869501913345e-6,0.0021343902841292053,0.00002091458479916013,-0.0012883109166076016,0.0008997599366021813,-1.1561669966666776e-6,0.049419045507473794,0.08243979247492253,0.6001386467406578,0.13953664277736902,0.4788190241105281,0.045498744092861865,25.0,25.0,25.0,25.0,25.0,25.0,24.0,1.396,0.0,0.0,1.0,1781038813518695306
1781038813878938895,2.025163679405655e-6,57.294631616115105,103.1324227130498,0.002181103271668306,-0.0005482848192398647,-4.335327681224406e-7,-1.9824869501913345e-6,0.0021343902841292053,0.00002091458479916013,-0.0012883109166076016,0.0008997599366021813,-1.1561669966666776e-6,0.049419045507473794,0.08243979247492253,0.6001386467406578,0.13953664277736902,0.4788190241105281,0.045498744092861865,25.0,25.0,25.0,25.0,25.0,25.0,24.0,1.396,0.0,0.0,1.0,1781038813518695306
1781038813979169172,1.985315652003597e-6,57.29467435851725,103.13242312052964,0.002154957865739605,-0.0005302544743947674,-4.564902764910949e-7,-1.8686464427241032e-6,0.0019977931430359233,0.00001867489925037688,-0.0012353576944044268,0.0008432040592399924,-1.066766282371536e-6,0.03997166545282413,0.08246977554570525,0.590042954508045,0.13877484828171968,0.46940347140587335,0.045283340296827096,25.0,25.0,25.0,25.0,25.0,25.0,24.0,1.366,0.0,0.0,1.0,1781038813891299431
1781038814078916406,1.985315652003597e-6,57.29467435851725,103.13242312052964,0.002154957865739605,-0.0005302544743947674,-4.564902764910949e-7,-1.8686464427241032e-6,0.0019977931430359233,0.00001867489925037688,-0.0012353576944044268,0.0008432040592399924,-1.066766282371536e-6,0.03997166545282413,0.08246977554570525,0.590042954508045,0.13877484828171968,0.46940347140587335,0.045283340296827096,25.0,25.0,25.0,25.0,25.0,25.0,24.0,1.366,0.0,0.0,1.0,1781038813891299431
1781038814181719776,1.985315652003597e-6,57.29467435851725,103.13242312052964,0.002154957865739605,-0.0005302544743947674,-4.564902764910949e-7,-1.8686464427241032e-6,0.0019977931430359233,0.00001867489925037688,-0.0012353576944044268,0.0008432040592399924,-1.066766282371536e-6,0.03997166545282413,0.08246977554570525,0.590042954508045,0.13877484828171968,0.46940347140587335,0.045283340296827096,25.0,25.0,25.0,25.0,25.0,25.0,24.0,1.366,0.0,0.0,1.0,1781038813891299431
1781038814278910605,1.9476132296044497e-6,57.294714380458366,103.13242348319042,0.00212968043066129,-0.0005133444965630177,-4.776725012727261e-7,-1.7727510086850018e-6,0.001871242178953187,0.00001658265354516958,-0.0012009758708914635,0.0007912800154992149,-9.84307568976727e-7,0.030924379590135265,0.08247806842368145,0.5803803210472939,0.13796323953560255,0.4605396206964134,0.045051245723938406,25.0,25.0,25.0,25.0,25.0,25.0,24.0,1.337,0.0,0.0,1.0,1781038814256266638
1781038814379527566,1.9476132296044497e-6,57.294714380458366,103.13242348319042,0.00212968043066129,-0.0005133444965630177,-4.776725012727261e-7,-1.7727510086850018e-6,0.001871242178953187,0.00001658265354516958,-0.0012009758708914635,0.0007912800154992149,-9.84307568976727e-7,0.030924379590135265,0.08247806842368145,0.5803803210472939,0.13796323953560255,0.4605396206964134,0.045051245723938406,25.0,25.0,25.0,25.0,25.0,25.0,24.0,1.337,0.0,0.0,1.0,1781038814256266638
1781038814479191099,1.9476132296044497e-6,57.294714380458366,103.13242348319042,0.00212968043066129,-0.0005133444965630177,-4.776725012727261e-7,-1.7727510086850018e-6,0.001871242178953187,0.00001658265354516958,-0.0012009758708914635,0.0007912800154992149,-9.84307568976727e-7,0.030924379590135265,0.08247806842368145,0.5803803210472939,0.13796323953560255,0.4605396206964134,0.045051245723938406,25.0,25.0,25.0,25.0,25.0,25.0,24.0,1.337,0.0,0.0,1.0,1781038814256266638
1781038814579270295,1.9476132296044497e-6,57.294714380458366,103.13242348319042,0.00212968043066129,-0.0005133444965630177,-4.776725012727261e-7,-1.7727510086850018e-6,0.001871242178953187,0.00001658265354516958,-0.0012009758708914635,0.0007912800154992149,-9.84307568976727e-7,0.030924379590135265,0.08247806842368145,0.5803803210472939,0.13796323953560255,0.4605396206964134,0.045051245723938406,25.0,25.0,25.0,25.0,25.0,25.0,24.0,1.337,0.0,0.0,1.0,1781038814256266638
1781038814679061018,1.9476132296044497e-6,57.294714380458366,103.13242348319042,0.00212968043066129,-0.0005133444965630177,-4.776725012727261e-7,-1.7727510086850018e-6,0.001871242178953187,0.00001658265354516958,-0.0012009758708914635,0.0007912800154992149,-9.84307568976727e-7,0.030924379590135265,0.08247806842368145,0.5803803210472939,0.13796323953560255,0.4605396206964134,0.045051245723938406,25.0,25.0,25.0,25.0,25.0,25.0,24.0,1.337,0.0,0.0,1.0,1781038814256266638
1781038814780292442,1.911696138462354e-6,57.2947518926691,103.13242380411197,0.002104907209996692,-0.000497458484179904,-4.972205263588002e-7,-1.6937032393390042e-6,0.0017548365328732475,0.00001463831416147903,-0.0011833125200674385,0.0007439737548136419,-9.085042084449264e-7,0.022260612059082505,0.08246927566840753,0.5711105856254685,0.13708180126407524,0.45217951441292714,0.04479573099543147,25.0,25.0,25.0,25.0,25.0,25.0,24.0,1.31,0.0,0.0,1.0,1781038814753639021
1781038814882045813,1.911696138462354e-6,57.2947518926691,103.13242380411197,0.002104907209996692,-0.000497458484179904,-4.972205263588002e-7,-1.6937032393390042e-6,0.0017548365328732475,0.00001463831416147903,-0.0011833125200674385,0.0007439737548136419,-9.085042084449264e-7,0.022260612059082505,0.08246927566840753,0.5711105856254685,0.13708180126407524,0.45217951441292714,0.04479573099543147,25.0,25.0,25.0,25.0,25.0,25.0,24.0,1.31,0.0,0.0,1.0,1781038814753639021
1781038814979350146,1.911696138462354e-6,57.2947518926691,103.13242380411197,0.002104907209996692,-0.000497458484179904,-4.972205263588002e-7,-1.6937032393390042e-6,0.0017548365328732475,0.00001463831416147903,-0.0011833125200674385,0.0007439737548136419,-9.085042084449264e-7,0.022260612059082505,0.08246927566840753,0.5711105856254685,0.13708180126407524,0.45217951441292714,0.04479573099543147,25.0,25.0,25.0,25.0,25.0,25.0,24.0,1.31,0.0,0.0,1.0,1781038814753639021
1781038815078639878,1.911696138462354e-6,57.2947518926691,103.13242380411197,0.002104907209996692,-0.000497458484179904,-4.972205263588002e-7,-1.6937032393390042e-6,0.0017548365328732475,0.00001463831416147903,-0.0011833125200674385,0.0007439737548136419,-9.085042084449264e-7,0.022260612059082505,0.08246927566840753,0.5711105856254685,0.13708180126407524,0.45217951441292714,0.04479573099543147,25.0,25.0,25.0,25.0,25.0,25.0,24.0,1.31,0.0,0.0,1.0,1781038814753639021
1781038815179274171,1.8772278887285035e-6,57.29478710652591,103.13242408636708,0.0020803130543567538,-0.0004825009095632167,-5.152691685934257e-7,-1.6303347884124723e-6,0.0016485632458767229,0.000012841031593525252,-0.0011805172003523897,0.0007012254238285288,-8.390464999293892e-7,0.013965171001480871,0.0824477424228847,0.5621933229281613,0.13611361685586712,0.4442757319281804,0.04451110080466876,25.0,25.0,25.0,25.0,25.0,25.0,24.0,1.284,0.0,0.0,1.0,1781038815146613202
1781038815278626263,1.8772278887285035e-6,57.29478710652591,103.13242408636708,0.0020803130543567538,-0.0004825009095632167,-5.152691685934257e-7,-1.6303347884124723e-6,0.0016485632458767229,0.000012841031593525252,-0.0011805172003523897,0.0007012254238285288,-8.390464999293892e-7,0.013965171001480871,0.0824477424228847,0.5621933229281613,0.13611361685586712,0.4442757319281804,0.04451110080466876,25.0,25.0,25.0,25.0,25.0,25.0,24.0,1.284,0.0,0.0,1.0,1781038815146613202
1781038815378839182,1.8772278887285035e-6,57.29478710652591,103.13242408636708,0.0020803130543567538,-0.0004825009095632167,-5.152691685934257e-7,-1.6303347884124723e-6,0.0016485632458767229,0.000012841031593525252,-0.0011805172003523897,0.0007012254238285288,-8.390464999293892e-7,0.013965171001480871,0.0824477424228847,0.5621933229281613,0.13611361685586712,0.4442757319281804,0.04451110080466876,25.0,25.0,25.0,25.0,25.0,25.0,24.0,1.284,0.0,0.0,1.0,1781038815146613202
1781038815478645937,1.8772278887285035e-6,57.29478710652591,103.13242408636708,0.0020803130543567538,-0.0004825009095632167,-5.152691685934257e-7,-1.6303347884124723e-6,0.0016485632458767229,0.000012841031593525252,-0.0011805172003523897,0.0007012254238285288,-8.390464999293892e-7,0.013965171001480871,0.0824477424228847,0.5621933229281613,0.13611361685586712,0.4442757319281804,0.04451110080466876,25.0,25.0,25.0,25.0,25.0,25.0,24.0,1.284,0.0,0.0,1.0,1781038815146613202
1781038815579393210,1.8438970011981304e-6,57.29482023185344,103.13242433299578,0.0020556111149371576,-0.0004683780089440003,-5.319465493516033e-7,-1.5814262396267625e-6,0.0015523082785696132,0.00001118876181808526,-0.0011907620006793977,0.0006629344861845887,-7.756058078468214e-7,0.006024149054233269,0.08241753430837473,0.5535883384600379,0.13504475335832167,0.4367818191551704,0.04419265633112793,25.0,25.0,25.0,25.0,25.0,25.0,24.0,1.258,0.0,0.0,1.0,1781038815559515962
1781038815686096124,1.8438970011981304e-6,57.29482023185344,103.13242433299578,0.0020556111149371576,-0.0004683780089440003,-5.319465493516033e-7,-1.5814262396267625e-6,0.0015523082785696132,0.00001118876181808526,-0.0011907620006793977,0.0006629344861845887,-7.756058078468214e-7,0.006024149054233269,0.08241753430837473,0.5535883384600379,0.13504475335832167,0.4367818191551704,0.04419265633112793,25.0,25.0,25.0,25.0,25.0,25.0,24.0,1.258,0.0,0.0,1.0,1781038815559515962
1781038815788384600,1.8438970011981304e-6,57.29482023185344,103.13242433299578,0.0020556111149371576,-0.0004683780089440003,-5.319465493516033e-7,-1.5814262396267625e-6,0.0015523082785696132,0.00001118876181808526,-0.0011907620006793977,0.0006629344861845887,-7.756058078468214e-7,0.006024149054233269,0.08241753430837473,0.5535883384600379,0.13504475335832167,0.4367818191551704,0.04419265633112793,25.0,25.0,25.0,25.0,25.0,25.0,24.0,1.258,0.0,0.0,1.0,1781038815559515962
1781038815887138042,1.8438970011981304e-6,57.29482023185344,103.13242433299578,0.0020556111149371576,-0.0004683780089440003,-5.319465493516033e-7,-1.5814262396267625e-6,0.0015523082785696132,0.00001118876181808526,-0.0011907620006793977,0.0006629344861845887,-7.756058078468214e-7,0.006024149054233269,0.08241753430837473,0.5535883384600379,0.13504475335832167,0.4367818191551704,0.04419265633112793,25.0,25.0,25.0,25.0,25.0,25.0,24.0,1.258,0.0,0.0,1.0,1781038815559515962
1781038815987253582,1.8114178411145787e-6,57.29485147495493,103.13242454698198,0.0020305521501832505,-0.0004549985674922143,-5.473737493009896e-7,-1.5457252931595853e-6,0.0014658673772144012,9.6783912706124e-6,-0.0012122591330507753,0.0006289647044148032,-7.178384740093334e-7,0.0015751716514097666,0.08238242156248403,0.5452561111915579,0.1338641254103603,0.4296526662001888,0.04383665050546894,25.0,25.0,25.0,25.0,25.0,25.0,24.0,1.237,0.0,0.0,1.0,1781038815983543550
1781038816087371937,1.8114178411145787e-6,57.29485147495493,103.13242454698198,0.0020305521501832505,-0.0004549985674922143,-5.473737493009896e-7,-1.5457252931595853e-6,0.0014658673772144012,9.6783912706124e-6,-0.0012122591330507753,0.0006289647044148032,-7.178384740093334e-7,0.0015751716514097666,0.08238242156248403,0.5452561111915579,0.1338641254103603,0.4296526662001888,0.04383665050546894,25.0,25.0,25.0,25.0,25.0,25.0,24.0,1.237,0.0,0.0,1.0,1781038815983543550
1781038816186876638,1.8114178411145787e-6,57.29485147495493,103.13242454698198,0.0020305521501832505,-0.0004549985674922143,-5.473737493009896e-7,-1.5457252931595853e-6,0.0014658673772144012,9.6783912706124e-6,-0.0012122591330507753,0.0006289647044148032,-7.178384740093334e-7,0.0015751716514097666,0.08238242156248403,0.5452561111915579,0.1338641254103603,0.4296526662001888,0.04383665050546894,25.0,25.0,25.0,25.0,25.0,25.0,24.0,1.237,0.0,0.0,1.0,1781038815983543550
1781038816286881482,1.8114178411145787e-6,57.29485147495493,103.13242454698198,0.0020305521501832505,-0.0004549985674922143,-5.473737493009896e-7,-1.5457252931595853e-6,0.0014658673772144012,9.6783912706124e-6,-0.0012122591330507753,0.0006289647044148032,-7.178384740093334e-7,0.0015751716514097666,0.08238242156248403,0.5452561111915579,0.1338641254103603,0.4296526662001888,0.04383665050546894,25.0,25.0,25.0,25.0,25.0,25.0,24.0,1.237,0.0,0.0,1.0,1781038815983543550
1781038816390520269,1.7795310942571838e-6,57.29488103686597,103.13242473123258,0.0020049234958894025,-0.00044227460267564305,-5.616645421625509e-7,-1.5219632596040194e-6,0.0013889566935681415,8.30585681078929e-6,-0.0012432761410028498,0.0005991489479588187,-6.653895307729423e-7,0.008844410508222168,0.08234586675613645,0.5371581844158034,0.13256334205887188,0.4228448340990667,0.04344023744734862,25.0,25.0,25.0,25.0,25.0,25.0,24.0,1.227,0.0,0.0,1.0,1781038816356480464
1781038816487213876,1.7795310942571838e-6,57.29488103686597,103.13242473123258,0.0020049234958894025,-0.00044227460267564305,-5.616645421625509e-7,-1.5219632596040194e-6,0.0013889566935681415,8.30585681078929e-6,-0.0012432761410028498,0.0005991489479588187,-6.653895307729423e-7,0.008844410508222168,0.08234586675613645,0.5371581844158034,0.13256334205887188,0.4228448340990667,0.04344023744734862,25.0,25.0,25.0,25.0,25.0,25.0,24.0,1.227,0.0,0.0,1.0,1781038816356480464
1781038816587143721,1.7795310942571838e-6,57.29488103686597,103.13242473123258,0.0020049234958894025,-0.00044227460267564305,-5.616645421625509e-7,-1.5219632596040194e-6,0.0013889566935681415,8.30585681078929e-6,-0.0012432761410028498,0.0005991489479588187,-6.653895307729423e-7,0.008844410508222168,0.08234586675613645,0.5371581844158034,0.13256334205887188,0.4228448340990667,0.04344023744734862,25.0,25.0,25.0,25.0,25.0,25.0,24.0,1.227,0.0,0.0,1.0,1781038816356480464
1781038816687465870,1.7480039203376545e-6,57.29490911182564,103.13242488855924,0.001978547747179948,-0.00043012194990305416,-5.749252035300313e-7,-1.5088698844096386e-6,0.001321223094385877,7.066262272562636e-6,-0.0012821488253568296,0.0005732938023114717,-6.178962320993184e-7,0.015794175951092376,0.08231101561128279,0.5292575062191213,0.13113654010603354,0.4163168322273756,0.04300141729977068,25.0,25.0,25.0,25.0,25.0,25.0,24.0,1.218,0.0,0.0,1.0,1781038816682754711
1781038816787464327,1.7480039203376545e-6,57.29490911182564,103.13242488855924,0.001978547747179948,-0.00043012194990305416,-5.749252035300313e-7,-1.5088698844096386e-6,0.001321223094385877,7.066262272562636e-6,-0.0012821488253568296,0.0005732938023114717,-6.178962320993184e-7,0.015794175951092376,0.08231101561128279,0.5292575062191213,0.13113654010603354,0.4163168322273756,0.04300141729977068,25.0,25.0,25.0,25.0,25.0,25.0,24.0,1.218,0.0,0.0,1.0,1781038816682754711
1781038816893869215,1.7480039203376545e-6,57.29490911182564,103.13242488855924,0.001978547747179948,-0.00043012194990305416,-5.749252035300313e-7,-1.5088698844096386e-6,0.001321223094385877,7.066262272562636e-6,-0.0012821488253568296,0.0005732938023114717,-6.178962320993184e-7,0.015794175951092376,0.08231101561128279,0.5292575062191213,0.13113654010603354,0.4163168322273756,0.04300141729977068,25.0,25.0,25.0,25.0,25.0,25.0,24.0,1.218,0.0,0.0,1.0,1781038816682754711
1781038816997966706,1.7480039203376545e-6,57.29490911182564,103.13242488855924,0.001978547747179948,-0.00043012194990305416,-5.749252035300313e-7,-1.5088698844096386e-6,0.001321223094385877,7.066262272562636e-6,-0.0012821488253568296,0.0005732938023114717,-6.178962320993184e-7,0.015794175951092376,0.08231101561128279,0.5292575062191213,0.13113654010603354,0.4163168322273756,0.04300141729977068,25.0,25.0,25.0,25.0,25.0,25.0,24.0,1.218,0.0,0.0,1.0,1781038816682754711
1781038817096734868,1.7166298179418893e-6,57.29493588595801,103.13242502166248,0.0019512811984162695,-0.00041846075485554054,-5.872543909992775e-7,-1.505186547929882e-6,0.0012622540949771277,5.953991455534935e-6,-0.001327292010506032,0.0005511839586727365,-5.749914030774343e-7,0.0224341498923019,0.08228069055453842,0.5215187213729516,0.12958020732816802,0.41002934843962774,0.04251897758232716,25.0,25.0,25.0,25.0,25.0,25.0,24.0,1.208,0.0,0.0,1.0,1781038817027414629
1781038817197948787,1.7166298179418893e-6,57.29493588595801,103.13242502166248,0.0019512811984162695,-0.00041846075485554054,-5.872543909992775e-7,-1.505186547929882e-6,0.0012622540949771277,5.953991455534935e-6,-0.001327292010506032,0.0005511839586727365,-5.749914030774343e-7,0.0224341498923019,0.08228069055453842,0.5215187213729516,0.12958020732816802,0.41002934843962774,0.04251897758232716,25.0,25.0,25.0,25.0,25.0,25.0,24.0,1.208,0.0,0.0,1.0,1781038817027414629
1781038817295402571,1.7166298179418893e-6,57.29493588595801,103.13242502166248,0.0019512811984162695,-0.00041846075485554054,-5.872543909992775e-7,-1.505186547929882e-6,0.0012622540949771277,5.953991455534935e-6,-0.001327292010506032,0.0005511839586727365,-5.749914030774343e-7,0.0224341498923019,0.08228069055453842,0.5215187213729516,0.12958020732816802,0.41002934843962774,0.04251897758232716,25.0,25.0,25.0,25.0,25.0,25.0,24.0,1.208,0.0,0.0,1.0,1781038817027414629
1781038817395382646,1.7166298179418893e-6,57.29493588595801,103.13242502166248,0.0019512811984162695,-0.00041846075485554054,-5.872543909992775e-7,-1.505186547929882e-6,0.0012622540949771277,5.953991455534935e-6,-0.001327292010506032,0.0005511839586727365,-5.749914030774343e-7,0.0224341498923019,0.08228069055453842,0.5215187213729516,0.12958020732816802,0.41002934843962774,0.04251897758232716,25.0,25.0,25.0,25.0,25.0,25.0,24.0,1.208,0.0,0.0,1.0,1781038817027414629
1781038817497714990,1.7166298179418893e-6,57.29493588595801,103.13242502166248,0.0019512811984162695,-0.00041846075485554054,-5.872543909992775e-7,-1.505186547929882e-6,0.0012622540949771277,5.953991455534935e-6,-0.001327292010506032,0.0005511839586727365,-5.749914030774343e-7,0.0224341498923019,0.08228069055453842,0.5215187213729516,0.12958020732816802,0.41002934843962774,0.04251897758232716,25.0,25.0,25.0,25.0,25.0,25.0,24.0,1.208,0.0,0.0,1.0,1781038817027414629
1781038817595475473,1.6852282341265163e-6,57.2949615361553,103.1324251331179,0.0019230120843046737,-0.0004072158772653237,-5.98743091807736e-7,-1.5096779029473956e-6,0.001211587376441285,4.962817354058142e-6,-0.001377208290136477,0.0005325863703021,-5.363066089487358e-7,0.028773169409420422,0.08225738675574291,0.513908416734923,0.1278929985963986,0.403945434336732,0.041992432083021274,25.0,25.0,25.0,25.0,25.0,25.0,24.0,1.199,0.0,0.0,1.0,1781038817547823468
1781038817694846122,1.6852282341265163e-6,57.2949615361553,103.1324251331179,0.0019230120843046737,-0.0004072158772653237,-5.98743091807736e-7,-1.5096779029473956e-6,0.001211587376441285,4.962817354058142e-6,-0.001377208290136477,0.0005325863703021,-5.363066089487358e-7,0.028773169409420422,0.08225738675574291,0.513908416734923,0.1278929985963986,0.403945434336732,0.041992432083021274,25.0,25.0,25.0,25.0,25.0,25.0,24.0,1.199,0.0,0.0,1.0,1781038817547823468
1781038817794918776,1.6852282341265163e-6,57.2949615361553,103.1324251331179,0.0019230120843046737,-0.0004072158772653237,-5.98743091807736e-7,-1.5096779029473956e-6,0.001211587376441285,4.962817354058142e-6,-0.001377208290136477,0.0005325863703021,-5.363066089487358e-7,0.028773169409420422,0.08225738675574291,0.513908416734923,0.1278929985963986,0.403945434336732,0.041992432083021274,25.0,25.0,25.0,25.0,25.0,25.0,24.0,1.199,0.0,0.0,1.0,1781038817547823468
1781038817895429885,1.6852282341265163e-6,57.2949615361553,103.1324251331179,0.0019230120843046737,-0.0004072158772653237,-5.98743091807736e-7,-1.5096779029473956e-6,0.001211587376441285,4.962817354058142e-6,-0.001377208290136477,0.0005325863703021,-5.363066089487358e-7,0.028773169409420422,0.08225738675574291,0.513908416734923,0.1278929985963986,0.403945434336732,0.041992432083021274,25.0,25.0,25.0,25.0,25.0,25.0,24.0,1.199,0.0,0.0,1.0,1781038817547823468
1781038817997959794,1.65364395029261e-6,57.29498622915371,103.13242522536504,0.0018936586624644395,-0.0003963172111342488,-6.09474634209492e-7,-1.5211420243334035e-6,0.0011687198510092055,4.086007561213384e-6,-0.001430494899993472,0.0005172541653575923,-5.014751397595328e-7,0.03481930593302985,0.08224327047595449,0.506395322485898,0.12607554762548395,0.39803064832204865,0.041421958207254375,25.0,25.0,25.0,25.0,25.0,25.0,24.0,1.189,0.0,0.0,1.0,1781038817918891182
1781038818094861118,1.65364395029261e-6,57.29498622915371,103.13242522536504,0.0018936586624644395,-0.0003963172111342488,-6.09474634209492e-7,-1.5211420243334035e-6,0.0011687198510092055,4.086007561213384e-6,-0.001430494899993472,0.0005172541653575923,-5.014751397595328e-7,0.03481930593302985,0.08224327047595449,0.506395322485898,0.12607554762548395,0.39803064832204865,0.041421958207254375,25.0,25.0,25.0,25.0,25.0,25.0,24.0,1.189,0.0,0.0,1.0,1781038817918891182
1781038818197519257,1.65364395029261e-6,57.29498622915371,103.13242522536504,0.0018936586624644395,-0.0003963172111342488,-6.09474634209492e-7,-1.5211420243334035e-6,0.0011687198510092055,4.086007561213384e-6,-0.001430494899993472,0.0005172541653575923,-5.014751397595328e-7,0.03481930593302985,0.08224327047595449,0.506395322485898,0.12607554762548395,0.39803064832204865,0.041421958207254375,25.0,25.0,25.0,25.0,25.0,25.0,24.0,1.189,0.0,0.0,1.0,1781038817918891182
1781038818302627626,1.621746274298762e-6,57.29501012079229,103.13242530069786,0.0018631671745773157,-0.0003856999265376669,-6.195247586747602e-7,-1.5384191547903698e-6,0.0011331162458188043,3.316426966734996e-6,-0.0014858488698473577,0.0005049303108649627,-4.701348054722111e-7,0.0405799420899532,0.08224017962134728,0.49895047168026,0.12413027678274124,0.3922531592780271,0.04080833360461774,25.0,25.0,25.0,25.0,25.0,25.0,24.0,1.179,0.0,0.0,1.0,1781038818288528368
1781038818403442240,1.621746274298762e-6,57.29501012079229,103.13242530069786,0.0018631671745773157,-0.0003856999265376669,-6.195247586747602e-7,-1.5384191547903698e-6,0.0011331162458188043,3.316426966734996e-6,-0.0014858488698473577,0.0005049303108649627,-4.701348054722111e-7,0.0405799420899532,0.08224017962134728,0.49895047168026,0.12413027678274124,0.3922531592780271,0.04080833360461774,25.0,25.0,25.0,25.0,25.0,25.0,24.0,1.179,0.0,0.0,1.0,1781038818288528368
1781038818504103535,1.621746274298762e-6,57.29501012079229,103.13242530069786,0.0018631671745773157,-0.0003856999265376669,-6.195247586747602e-7,-1.5384191547903698e-6,0.0011331162458188043,3.316426966734996e-6,-0.0014858488698473577,0.0005049303108649627,-4.701348054722111e-7,0.0405799420899532,0.08224017962134728,0.49895047168026,0.12413027678274124,0.3922531592780271,0.04080833360461774,25.0,25.0,25.0,25.0,25.0,25.0,24.0,1.179,0.0,0.0,1.0,1781038818288528368
1781038818604130804,1.621746274298762e-6,57.29501012079229,103.13242530069786,0.0018631671745773157,-0.0003856999265376669,-6.195247586747602e-7,-1.5384191547903698e-6,0.0011331162458188043,3.316426966734996e-6,-0.0014858488698473577,0.0005049303108649627,-4.701348054722111e-7,0.0405799420899532,0.08224017962134728,0.49895047168026,0.12413027678274124,0.3922531592780271,0.04080833360461774,25.0,25.0,25.0,25.0,25.0,25.0,24.0,1.179,0.0,0.0,1.0,1781038818288528368
1781038818704082767,1.621746274298762e-6,57.29501012079229,103.13242530069786,0.0018631671745773157,-0.0003856999265376669,-6.195247586747602e-7,-1.5384191547903698e-6,0.0011331162458188043,3.316426966734996e-6,-0.0014858488698473577,0.0005049303108649627,-4.701348054722111e-7,0.0405799420899532,0.08224017962134728,0.49895047168026,0.12413027678274124,0.3922531592780271,0.04080833360461774,25.0,25.0,25.0,25.0,25.0,25.0,24.0,1.179,0.0,0.0,1.0,1781038818288528368
1781038818814065678,1.58942806702178e-6,57.29503335544423,103.13242536125767,0.0018315097200739456,-0.00037530463826203006,-6.289617448422638e-7,-1.5603991304905269e-6,0.0011042171881240962,2.64663280589933e-6,-0.001542070606018114,0.0004953510231705561,-4.419305324905599e-7,0.04606184626856258,0.0822496264180184,0.49154732072594,0.12206120711167157,0.3865838138175358,0.04015287280150267,25.0,25.0,25.0,25.0,25.0,25.0,24.0,1.169,0.0,0.0,1.0,1781038818791618623
1781038818914497984,1.58942806702178e-6,57.29503335544423,103.13242536125767,0.0018315097200739456,-0.00037530463826203006,-6.289617448422638e-7,-1.5603991304905269e-6,0.0011042171881240962,2.64663280589933e-6,-0.001542070606018114,0.0004953510231705561,-4.419305324905599e-7,0.04606184626856258,0.0822496264180184,0.49154732072594,0.12206120711167157,0.3865838138175358,0.04015287280150267,25.0,25.0,25.0,25.0,25.0,25.0,24.0,1.169,0.0,0.0,1.0,1781038818791618623
1781038819015272197,1.58942806702178e-6,57.29503335544423,103.13242536125767,0.0018315097200739456,-0.00037530463826203006,-6.289617448422638e-7,-1.5603991304905269e-6,0.0011042171881240962,2.64663280589933e-6,-0.001542070606018114,0.0004953510231705561,-4.419305324905599e-7,0.04606184626856258,0.0822496264180184,0.49154732072594,0.12206120711167157,0.3865838138175358,0.04015287280150267,25.0,25.0,25.0,25.0,25.0,25.0,24.0,1.169,0.0,0.0,1.0,1781038818791618623
1781038819115056032,1.58942806702178e-6,57.29503335544423,103.13242536125767,0.0018315097200739456,-0.00037530463826203006,-6.289617448422638e-7,-1.5603991304905269e-6,0.0011042171881240962,2.64663280589933e-6,-0.001542070606018114,0.0004953510231705561,-4.419305324905599e-7,0.04606184626856258,0.0822496264180184,0.49154732072594,0.12206120711167157,0.3865838138175358,0.04015287280150267,25.0,25.0,25.0,25.0,25.0,25.0,24.0,1.169,0.0,0.0,1.0,1781038818791618623
1781038819217723378,1.58942806702178e-6,57.29503335544423,103.13242536125767,0.0018315097200739456,-0.00037530463826203006,-6.289617448422638e-7,-1.5603991304905269e-6,0.0011042171881240962,2.64663280589933e-6,-0.001542070606018114,0.0004953510231705561,-4.419305324905599e-7,0.04606184626856258,0.0822496264180184,0.49154732072594,0.12206120711167157,0.3865838138175358,0.04015287280150267,25.0,25.0,25.0,25.0,25.0,25.0,24.0,1.169,0.0,0.0,1.0,1781038818791618623
1781038819317702451,1.556604629721062e-6,57.295056065610375,103.13242540902792,0.0017986820731791726,-0.0003650775065507155,-6.378465900162696e-7,-1.5860275776536548e-6,0.0010814467772804863,2.0689666451418353e-6,-0.0015980660538264435,0.000488248925475438,-4.1651675439327306e-7,0.05127124489113152,0.08227280217790443,0.4841618334530043,0.1198737704613054,0.38099617010694325,0.03945736447943778,25.0,25.0,25.0,25.0,25.0,25.0,24.0,1.158,0.0,0.0,1.0,1781038819227173712
1781038819415147771,1.556604629721062e-6,57.295056065610375,103.13242540902792,0.0017986820731791726,-0.0003650775065507155,-6.378465900162696e-7,-1.5860275776536548e-6,0.0010814467772804863,2.0689666451418353e-6,-0.0015980660538264435,0.000488248925475438,-4.1651675439327306e-7,0.05127124489113152,0.08227280217790443,0.4841618334530043,0.1198737704613054,0.38099617010694325,0.03945736447943778,25.0,25.0,25.0,25.0,25.0,25.0,24.0,1.158,0.0,0.0,1.0,1781038819227173712
1781038819515067906,1.556604629721062e-6,57.295056065610375,103.13242540902792,0.0017986820731791726,-0.0003650775065507155,-6.378465900162696e-7,-1.5860275776536548e-6,0.0010814467772804863,2.0689666451418353e-6,-0.0015980660538264435,0.000488248925475438,-4.1651675439327306e-7,0.05127124489113152,0.08227280217790443,0.4841618334530043,0.1198737704613054,0.38099617010694325,0.03945736447943778,25.0,25.0,25.0,25.0,25.0,25.0,24.0,1.158,0.0,0.0,1.0,1781038819227173712
1781038819617736158,1.556604629721062e-6,57.295056065610375,103.13242540902792,0.0017986820731791726,-0.0003650775065507155,-6.378465900162696e-7,-1.5860275776536548e-6,0.0010814467772804863,2.0689666451418353e-6,-0.0015980660538264435,0.000488248925475438,-4.1651675439327306e-7,0.05127124489113152,0.08227280217790443,0.4841618334530043,0.1198737704613054,0.38099617010694325,0.03945736447943778,25.0,25.0,25.0,25.0,25.0,25.0,24.0,1.158,0.0,0.0,1.0,1781038819227173712
1781038819714997356,1.523212476760279e-6,57.29507837166383,103.1324254458308,0.0017647014711018288,-0.000354970275242461,-6.462332347954687e-7,-1.614310964970009e-6,0.0010642196334016978,1.5756424011248814e-6,-0.0016528475831772743,0.0004833559517711724,-3.9355958753274346e-7,0.05621389230536622,0.08231058410636433,0.4767725315009999,0.11757462537028188,0.3754665012835338,0.03872400995799802,25.0,25.0,25.0,25.0,25.0,25.0,24.0,1.147,0.0,0.0,1.0,1781038819675961846
1781038819817719381,1.523212476760279e-6,57.29507837166383,103.1324254458308,0.0017647014711018288,-0.000354970275242461,-6.462332347954687e-7,-1.614310964970009e-6,0.0010642196334016978,1.5756424011248814e-6,-0.0016528475831772743,0.0004833559517711724,-3.9355958753274346e-7,0.05621389230536622,0.08231058410636433,0.4767725315009999,0.11757462537028188,0.3754665012835338,0.03872400995799802,25.0,25.0,25.0,25.0,25.0,25.0,24.0,1.147,0.0,0.0,1.0,1781038819675961846
1781038819914537660,1.523212476760279e-6,57.29507837166383,103.1324254458308,0.0017647014711018288,-0.000354970275242461,-6.462332347954687e-7,-1.614310964970009e-6,0.0010642196334016978,1.5756424011248814e-6,-0.0016528475831772743,0.0004833559517711724,-3.9355958753274346e-7,0.05621389230536622,0.08231058410636433,0.4767725315009999,0.11757462537028188,0.3754665012835338,0.03872400995799802,25.0,25.0,25.0,25.0,25.0,25.0,24.0,1.147,0.0,0.0,1.0,1781038819675961846
1781038820015289678,1.523212476760279e-6,57.29507837166383,103.1324254458308,0.0017647014711018288,-0.000354970275242461,-6.462332347954687e-7,-1.614310964970009e-6,0.0010642196334016978,1.5756424011248814e-6,-0.0016528475831772743,0.0004833559517711724,-3.9355958753274346e-7,0.05621389230536622,0.08231058410636433,0.4767725315009999,0.11757462537028188,0.3754665012835338,0.03872400995799802,25.0,25.0,25.0,25.0,25.0,25.0,24.0,1.147,0.0,0.0,1.0,1781038819675961846
1781038820115580766,1.4892080164502689e-6,57.29510038173481,103.13242547332553,0.0017296043982449503,-0.00034494025255936005,-6.541688312320444e-7,-1.6443205959791592e-6,0.001051947414812379,1.1588276240865156e-6,-0.0017055337342221349,0.0004804059989872862,-3.727387824544485e-7,0.060895138146224666,0.0823635441110837,0.4693605137615448,0.11517147812902878,0.3699737714624576,0.03795536336535638,25.0,25.0,25.0,25.0,25.0,25.0,24.0,1.136,0.0,0.0,1.0,1781038820107236918
1781038820215231260,1.4892080164502689e-6,57.29510038173481,103.13242547332553,0.0017296043982449503,-0.00034494025255936005,-6.541688312320444e-7,-1.6443205959791592e-6,0.001051947414812379,1.1588276240865156e-6,-0.0017055337342221349,0.0004804059989872862,-3.727387824544485e-7,0.060895138146224666,0.0823635441110837,0.4693605137615448,0.11517147812902878,0.3699737714624576,0.03795536336535638,25.0,25.0,25.0,25.0,25.0,25.0,24.0,1.136,0.0,0.0,1.0,1781038820107236918
1781038820321701747,1.4892080164502689e-6,57.29510038173481,103.13242547332553,0.0017296043982449503,-0.00034494025255936005,-6.541688312320444e-7,-1.6443205959791592e-6,0.001051947414812379,1.1588276240865156e-6,-0.0017055337342221349,0.0004804059989872862,-3.727387824544485e-7,0.060895138146224666,0.0823635441110837,0.4693605137615448,0.11517147812902878,0.3699737714624576,0.03795536336535638,25.0,25.0,25.0,25.0,25.0,25.0,24.0,1.136,0.0,0.0,1.0,1781038820107236918
1781038820425923465,1.4892080164502689e-6,57.29510038173481,103.13242547332553,0.0017296043982449503,-0.00034494025255936005,-6.541688312320444e-7,-1.6443205959791592e-6,0.001051947414812379,1.1588276240865156e-6,-0.0017055337342221349,0.0004804059989872862,-3.727387824544485e-7,0.060895138146224666,0.0823635441110837,0.4693605137615448,0.11517147812902878,0.3699737714624576,0.03795536336535638,25.0,25.0,25.0,25.0,25.0,25.0,24.0,1.136,0.0,0.0,1.0,1781038820107236918
1781038820525703747,1.4892080164502689e-6,57.29510038173481,103.13242547332553,0.0017296043982449503,-0.00034494025255936005,-6.541688312320444e-7,-1.6443205959791592e-6,0.001051947414812379,1.1588276240865156e-6,-0.0017055337342221349,0.0004804059989872862,-3.727387824544485e-7,0.060895138146224666,0.0823635441110837,0.4693605137615448,0.11517147812902878,0.3699737714624576,0.03795536336535638,25.0,25.0,25.0,25.0,25.0,25.0,24.0,1.136,0.0,0.0,1.0,1781038820107236918
1781038820625701267,1.4545661610584296e-6,57.29512219172472,103.13242549300836,0.0016934443885532793,-0.0003349502397520528,-6.616940488107627e-7,-1.6751956254533856e-6,0.001044044803088584,8.107200559782752e-7,-0.0017553479527817443,0.0004791373309707374,-3.537494474097143e-7,0.0653199919712235,0.08243195956757568,0.4619094475922796,0.1126729102358318,0.3644995872729623,0.037154273909883254,25.0,25.0,25.0,25.0,25.0,25.0,24.0,1.124,0.0,0.0,1.0,1781038820578646611
1781038820723215534,1.4545661610584296e-6,57.29512219172472,103.13242549300836,0.0016934443885532793,-0.0003349502397520528,-6.616940488107627e-7,-1.6751956254533856e-6,0.001044044803088584,8.107200559782752e-7,-0.0017553479527817443,0.0004791373309707374,-3.537494474097143e-7,0.0653199919712235,0.08243195956757568,0.4619094475922796,0.1126729102358318,0.3644995872729623,0.037154273909883254,25.0,25.0,25.0,25.0,25.0,25.0,24.0,1.124,0.0,0.0,1.0,1781038820578646611
1781038820824819452,1.4545661610584296e-6,57.29512219172472,103.13242549300836,0.0016934443885532793,-0.0003349502397520528,-6.616940488107627e-7,-1.6751956254533856e-6,0.001044044803088584,8.107200559782752e-7,-0.0017553479527817443,0.0004791373309707374,-3.537494474097143e-7,0.0653199919712235,0.08243195956757568,0.4619094475922796,0.1126729102358318,0.3644995872729623,0.037154273909883254,25.0,25.0,25.0,25.0,25.0,25.0,24.0,1.124,0.0,0.0,1.0,1781038820578646611
1781038820925703909,1.419278885382892e-6,57.29514388543807,103.13242550621425,0.0016562898655166254,-0.0003249684127452901,-6.688434133422529e-7,-1.706145172739598e-6,0.0010399349517532614,5.236173095601888e-7,-0.001801616436482335,0.0004792947360905716,-3.363035320347787e-7,0.06949318493766098,0.08251582595479803,0.4544055345274689,0.1100882132740051,0.3590281278029507,0.036323830602590104,25.0,25.0,25.0,25.0,25.0,25.0,24.0,1.112,0.0,0.0,1.0,1781038820880138710
1781038821023188801,1.419278885382892e-6,57.29514388543807,103.13242550621425,0.0016562898655166254,-0.0003249684127452901,-6.688434133422529e-7,-1.706145172739598e-6,0.0010399349517532614,5.236173095601888e-7,-0.001801616436482335,0.0004792947360905716,-3.363035320347787e-7,0.06949318493766098,0.08251582595479803,0.4544055345274689,0.1100882132740051,0.3590281278029507,0.036323830602590104,25.0,25.0,25.0,25.0,25.0,25.0,24.0,1.112,0.0,0.0,1.0,1781038820880138710
1781038821123232319,1.419278885382892e-6,57.29514388543807,103.13242550621425,0.0016562898655166254,-0.0003249684127452901,-6.688434133422529e-7,-1.706145172739598e-6,0.0010399349517532614,5.236173095601888e-7,-0.001801616436482335,0.0004792947360905716,-3.363035320347787e-7,0.06949318493766098,0.08251582595479803,0.4544055345274689,0.1100882132740051,0.3590281278029507,0.036323830602590104,25.0,25.0,25.0,25.0,25.0,25.0,24.0,1.112,0.0,0.0,1.0,1781038820880138710
1781038821222486912,1.419278885382892e-6,57.29514388543807,103.13242550621425,0.0016562898655166254,-0.0003249684127452901,-6.688434133422529e-7,-1.706145172739598e-6,0.0010399349517532614,5.236173095601888e-7,-0.001801616436482335,0.0004792947360905716,-3.363035320347787e-7,0.06949318493766098,0.08251582595479803,0.4544055345274689,0.1100882132740051,0.3590281278029507,0.036323830602590104,25.0,25.0,25.0,25.0,25.0,25.0,24.0,1.112,0.0,0.0,1.0,1781038820880138710
1781038821327989008,1.383353751729078e-6,57.29516553482135,103.13242551411956,0.001618222036916546,-0.0003149681618482577,-6.756456738155538e-7,-1.7364496104554888e-6,0.0010390544033286148,2.899827478262464e-7,-0.0018437652058930685,0.0004806314443100013,-3.201310739294415e-7,0.07341922827091789,0.08261487128050854,0.4468374531330035,0.10742723206115344,0.3535460557246376,0.03546730972093505,25.0,25.0,25.0,25.0,25.0,25.0,24.0,1.099,0.0,0.0,1.0,1781038821261696252
1781038821429393074,1.383353751729078e-6,57.29516553482135,103.13242551411956,0.001618222036916546,-0.0003149681618482577,-6.756456738155538e-7,-1.7364496104554888e-6,0.0010390544033286148,2.899827478262464e-7,-0.0018437652058930685,0.0004806314443100013,-3.201310739294415e-7,0.07341922827091789,0.08261487128050854,0.4468374531330035,0.10742723206115344,0.3535460557246376,0.03546730972093505,25.0,25.0,25.0,25.0,25.0,25.0,24.0,1.099,0.0,0.0,1.0,1781038821261696252
1781038821528693504,1.383353751729078e-6,57.29516553482135,103.13242551411956,0.001618222036916546,-0.0003149681618482577,-6.756456738155538e-7,-1.7364496104554888e-6,0.0010390544033286148,2.899827478262464e-7,-0.0018437652058930685,0.0004806314443100013,-3.201310739294415e-7,0.07341922827091789,0.08261487128050854,0.4468374531330035,0.10742723206115344,0.3535460557246376,0.03546730972093505,25.0,25.0,25.0,25.0,25.0,25.0,24.0,1.099,0.0,0.0,1.0,1781038821261696252
1781038821629403312,1.383353751729078e-6,57.29516553482135,103.13242551411956,0.001618222036916546,-0.0003149681618482577,-6.756456738155538e-7,-1.7364496104554888e-6,0.0010390544033286148,2.899827478262464e-7,-0.0018437652058930685,0.0004806314443100013,-3.201310739294415e-7,0.07341922827091789,0.08261487128050854,0.4468374531330035,0.10742723206115344,0.3535460557246376,0.03546730972093505,25.0,25.0,25.0,25.0,25.0,25.0,24.0,1.099,0.0,0.0,1.0,1781038821261696252
1781038821733769976,1.383353751729078e-6,57.29516553482135,103.13242551411956,0.001618222036916546,-0.0003149681618482577,-6.756456738155538e-7,-1.7364496104554888e-6,0.0010390544033286148,2.899827478262464e-7,-0.0018437652058930685,0.0004806314443100013,-3.201310739294415e-7,0.07341922827091789,0.08261487128050854,0.4468374531330035,0.10742723206115344,0.3535460557246376,0.03546730972093505,25.0,25.0,25.0,25.0,25.0,25.0,24.0,1.099,0.0,0.0,1.0,1781038821261696252
1781038821835031618,1.3468124176483692e-6,57.29518720029765,103.13242551774638,0.0015793328591322605,-0.00030492789450409116,-6.821241921951769e-7,-1.765461093517654e-6,0.0010408574730506868,1.0250308673205869e-7,-0.0018813165059850488,0.0004829108066247821,-3.0498120386143213e-7,0.07710246826436688,0.08272857215888259,0.4391962816432937,0.10470021676412156,0.3480424122876829,0.03458812525129895,25.0,25.0,25.0,25.0,25.0,25.0,24.0,1.086,0.0,0.0,1.0,1781038821726322672
1781038821934753898,1.3468124176483692e-6,57.29518720029765,103.13242551774638,0.0015793328591322605,-0.00030492789450409116,-6.821241921951769e-7,-1.765461093517654e-6,0.0010408574730506868,1.0250308673205869e-7,-0.0018813165059850488,0.0004829108066247821,-3.0498120386143213e-7,0.07710246826436688,0.08272857215888259,0.4391962816432937,0.10470021676412156,0.3480424122876829,0.03458812525129895,25.0,25.0,25.0,25.0,25.0,25.0,24.0,1.086,0.0,0.0,1.0,1781038821726322672
1781038822034766954,1.3468124176483692e-6,57.29518720029765,103.13242551774638,0.0015793328591322605,-0.00030492789450409116,-6.821241921951769e-7,-1.765461093517654e-6,0.0010408574730506868,1.0250308673205869e-7,-0.0018813165059850488,0.0004829108066247821,-3.0498120386143213e-7,0.07710246826436688,0.08272857215888259,0.4391962816432937,0.10470021676412156,0.3480424122876829,0.03458812525129895,25.0,25.0,25.0,25.0,25.0,25.0,24.0,1.086,0.0,0.0,1.0,1781038821726322672
1781038822134743733,1.3468124176483692e-6,57.29518720029765,103.13242551774638,0.0015793328591322605,-0.00030492789450409116,-6.821241921951769e-7,-1.765461093517654e-6,0.0010408574730506868,1.0250308673205869e-7,-0.0018813165059850488,0.0004829108066247821,-3.0498120386143213e-7,0.07710246826436688,0.08272857215888259,0.4391962816432937,0.10470021676412156,0.3480424122876829,0.03458812525129895,25.0,25.0,25.0,25.0,25.0,25.0,24.0,1.086,0.0,0.0,1.0,1781038821726322672
1781038822234815724,1.3468124176483692e-6,57.29518720029765,103.13242551774638,0.0015793328591322605,-0.00030492789450409116,-6.821241921951769e-7,-1.765461093517654e-6,0.0010408574730506868,1.0250308673205869e-7,-0.0018813165059850488,0.0004829108066247821,-3.0498120386143213e-7,0.07710246826436688,0.08272857215888259,0.4391962816432937,0.10470021676412156,0.3480424122876829,0.03458812525129895,25.0,25.0,25.0,25.0,25.0,25.0,24.0,1.086,0.0,0.0,1.0,1781038821726322672
1781038822335043988,1.309689141389251e-6,57.295208931186025,103.13242551796785,0.0015397230837049113,-0.00029483080594966784,-6.882973511255602e-7,-1.7926033978651069e-6,0.001044820108603764,-4.5858119603695755e-8,-0.0019138846372055555,0.0004859077434403056,-2.906229083043949e-7,0.08054713755860433,0.08285617140293793,0.43147540292552333,0.10191768452454152,0.3425084987380874,0.03368978249727232,25.0,25.0,25.0,25.0,25.0,25.0,24.0,1.073,0.0,0.0,1.0,1781038822239476523
1781038822435058737,1.309689141389251e-6,57.295208931186025,103.13242551796785,0.0015397230837049113,-0.00029483080594966784,-6.882973511255602e-7,-1.7926033978651069e-6,0.001044820108603764,-4.5858119603695755e-8,-0.0019138846372055555,0.0004859077434403056,-2.906229083043949e-7,0.08054713755860433,0.08285617140293793,0.43147540292552333,0.10191768452454152,0.3425084987380874,0.03368978249727232,25.0,25.0,25.0,25.0,25.0,25.0,24.0,1.073,0.0,0.0,1.0,1781038822239476523
1781038822535475319,1.309689141389251e-6,57.295208931186025,103.13242551796785,0.0015397230837049113,-0.00029483080594966784,-6.882973511255602e-7,-1.7926033978651069e-6,0.001044820108603764,-4.5858119603695755e-8,-0.0019138846372055555,0.0004859077434403056,-2.906229083043949e-7,0.08054713755860433,0.08285617140293793,0.43147540292552333,0.10191768452454152,0.3425084987380874,0.03368978249727232,25.0,25.0,25.0,25.0,25.0,25.0,24.0,1.073,0.0,0.0,1.0,1781038822239476523
1781038822634905149,1.2720292986854962e-6,57.2952307661948,103.13242551551444,0.0014995003968867589,-0.0002846646225410834,-6.941789745729882e-7,-1.817371129321149e-6,0.0010504432300746185,-1.618156522609827e-7,-0.001941171307816083,0.0004894099664682507,-2.7684555668937144e-7,0.0837574024642456,0.08299669694435852,0.42367039427176423,0.09909029100689348,0.33693774661001613,0.032775834995802576,25.0,25.0,25.0,25.0,25.0,25.0,24.0,1.059,0.0,0.0,1.0,1781038822577896485
1781038822734706802,1.2720292986854962e-6,57.2952307661948,103.13242551551444,0.0014995003968867589,-0.0002846646225410834,-6.941789745729882e-7,-1.817371129321149e-6,0.0010504432300746185,-1.618156522609827e-7,-0.001941171307816083,0.0004894099664682507,-2.7684555668937144e-7,0.0837574024642456,0.08299669694435852,0.42367039427176423,0.09909029100689348,0.33693774661001613,0.032775834995802576,25.0,25.0,25.0,25.0,25.0,25.0,24.0,1.059,0.0,0.0,1.0,1781038822577896485
1781038822837701127,1.2338879232151e-6,57.29525273397805,103.1324255109811,0.0014587776610605614,-0.00027442132236623446,-6.997787565395136e-7,-1.8393283650989531e-6,0.00105725556168542,-2.5172171604354444e-7,-0.0019629605937777606,0.0004932189821038222,-2.634591966248804e-7,0.08673740612009076,0.08314898189524014,0.4157789044132079,0.09622871215520049,0.3313255791983299,0.03184984484080805,25.0,25.0,25.0,25.0,25.0,25.0,24.0,1.045,0.0,0.0,1.0,1781038822807197135
1781038822934960712,1.2338879232151e-6,57.29525273397805,103.1324255109811,0.0014587776610605614,-0.00027442132236623446,-6.997787565395136e-7,-1.8393283650989531e-6,0.00105725556168542,-2.5172171604354444e-7,-0.0019629605937777606,0.0004932189821038222,-2.634591966248804e-7,0.08673740612009076,0.08314898189524014,0.4157789044132079,0.09622871215520049,0.3313255791983299,0.03184984484080805,25.0,25.0,25.0,25.0,25.0,25.0,24.0,1.045,0.0,0.0,1.0,1781038822807197135
1781038823037774700,1.2338879232151e-6,57.29525273397805,103.1324255109811,0.0014587776610605614,-0.00027442132236623446,-6.997787565395136e-7,-1.8393283650989531e-6,0.00105725556168542,-2.5172171604354444e-7,-0.0019629605937777606,0.0004932189821038222,-2.634591966248804e-7,0.08673740612009076,0.08314898189524014,0.4157789044132079,0.09622871215520049,0.3313255791983299,0.03184984484080805,25.0,25.0,25.0,25.0,25.0,25.0,24.0,1.045,0.0,0.0,1.0,1781038822807197135
1781038823137725480,1.2338879232151e-6,57.29525273397805,103.1324255109811,0.0014587776610605614,-0.00027442132236623446,-6.997787565395136e-7,-1.8393283650989531e-6,0.00105725556168542,-2.5172171604354444e-7,-0.0019629605937777606,0.0004932189821038222,-2.634591966248804e-7,0.08673740612009076,0.08314898189524014,0.4157789044132079,0.09622871215520049,0.3313255791983299,0.03184984484080805,25.0,25.0,25.0,25.0,25.0,25.0,24.0,1.045,0.0,0.0,1.0,1781038822807197135
1781038823234628731,1.195328281856058e-6,57.29527485374486,103.13242550483548,0.0014176712651983235,-0.00026409683762392585,-7.05102693125679e-7,-1.8581067835235928e-6,0.001064815965257375,-3.215349853268164e-7,-0.0019791135860219447,0.0004971508822657526,-2.5029462590666284e-7,0.08949130731459864,0.08331168551920994,0.4078005200913112,0.09334353633151006,0.3256692663963495,0.03091534647546395,25.0,25.0,25.0,25.0,25.0,25.0,24.0,1.031,0.0,0.0,1.0,1781038823200603668
1781038823337708126,1.195328281856058e-6,57.29527485374486,103.13242550483548,0.0014176712651983235,-0.00026409683762392585,-7.05102693125679e-7,-1.8581067835235928e-6,0.001064815965257375,-3.215349853268164e-7,-0.0019791135860219447,0.0004971508822657526,-2.5029462590666284e-7,0.08949130731459864,0.08331168551920994,0.4078005200913112,0.09334353633151006,0.3256692663963495,0.03091534647546395,25.0,25.0,25.0,25.0,25.0,25.0,24.0,1.031,0.0,0.0,1.0,1781038823200603668
1781038823435750135,1.1564204946535764e-6,57.29529713591109,103.13242549742624,0.001376299589920972,-0.00025369074307594067,-7.101535134360392e-7,-1.8734033411959283e-6,0.0010727152943068297,-3.767917163718559e-7,-0.0019895628005241837,0.0005010369324561385,-2.3720325441203505e-7,0.0920233148411398,0.08348331489234793,0.3997366243887152,0.09044516690212148,0.3199677749314253,0.02997581397811026,25.0,25.0,25.0,25.0,25.0,25.0,24.0,1.016,0.0,0.0,1.0,1781038823418755134
1781038823534854993,1.1564204946535764e-6,57.29529713591109,103.13242549742624,0.001376299589920972,-0.00025369074307594067,-7.101535134360392e-7,-1.8734033411959283e-6,0.0010727152943068297,-3.767917163718559e-7,-0.0019895628005241837,0.0005010369324561385,-2.3720325441203505e-7,0.0920233148411398,0.08348331489234793,0.3997366243887152,0.09044516690212148,0.3199677749314253,0.02997581397811026,25.0,25.0,25.0,25.0,25.0,25.0,24.0,1.016,0.0,0.0,1.0,1781038823418755134
1781038823635109187,1.1564204946535764e-6,57.29529713591109,103.13242549742624,0.001376299589920972,-0.00025369074307594067,-7.101535134360392e-7,-1.8734033411959283e-6,0.0010727152943068297,-3.767917163718559e-7,-0.0019895628005241837,0.0005010369324561385,-2.3720325441203505e-7,0.0920233148411398,0.08348331489234793,0.3997366243887152,0.09044516690212148,0.3199677749314253,0.02997581397811026,25.0,25.0,25.0,25.0,25.0,25.0,24.0,1.016,0.0,0.0,1.0,1781038823418755134
1781038823734527079,1.117240208278426e-6,57.29531958278403,103.13242548899224,0.001334781591220605,-0.00024320593469858345,-7.14931105081367e-7,-1.884977549679937e-6,0.0010805777799427472,-4.225860061193957e-7,-0.001994306420972669,0.0005047239651461292,-2.240567651471817e-7,0.09433771730581486,0.08366224699944713,0.39159024894532973,0.08754373524149738,0.3142216158996336,0.029034631834153862,25.0,25.0,25.0,25.0,25.0,25.0,24.0,1.0,0.0,0.0,1.0,1781038823732444948
1781038823837726755,1.117240208278426e-6,57.29531958278403,103.13242548899224,0.001334781591220605,-0.00024320593469858345,-7.14931105081367e-7,-1.884977549679937e-6,0.0010805777799427472,-4.225860061193957e-7,-0.001994306420972669,0.0005047239651461292,-2.240567651471817e-7,0.09433771730581486,0.08366224699944713,0.39159024894532973,0.08754373524149738,0.3142216158996336,0.029034631834153862,25.0,25.0,25.0,25.0,25.0,25.0,24.0,1.0,0.0,0.0,1.0,1781038823732444948
1781038823941765005,1.117240208278426e-6,57.29531958278403,103.13242548899224,0.001334781591220605,-0.00024320593469858345,-7.14931105081367e-7,-1.884977549679937e-6,0.0010805777799427472,-4.225860061193957e-7,-0.001994306420972669,0.0005047239651461292,-2.240567651471817e-7,0.09433771730581486,0.08366224699944713,0.39159024894532973,0.08754373524149738,0.3142216158996336,0.029034631834153862,25.0,25.0,25.0,25.0,25.0,25.0,24.0,1.0,0.0,0.0,1.0,1781038823732444948
1781038824043051833,1.117240208278426e-6,57.29531958278403,103.13242548899224,0.001334781591220605,-0.00024320593469858345,-7.14931105081367e-7,-1.884977549679937e-6,0.0010805777799427472,-4.225860061193957e-7,-0.001994306420972669,0.0005047239651461292,-2.240567651471817e-7,0.09433771730581486,0.08366224699944713,0.39159024894532973,0.08754373524149738,0.3142216158996336,0.029034631834153862,25.0,25.0,25.0,25.0,25.0,25.0,24.0,1.0,0.0,0.0,1.0,1781038823732444948
1781038824142777714,1.0778673306211044e-6,57.295342189270265,103.1324254796718,0.001293235505504018,-0.00023264830245486816,-7.194329303275207e-7,-1.892648407075004e-6,0.0010880619743087838,-4.63555411908206e-7,-0.0019934024396998885,0.0005080745891922942,-2.107465939282885e-7,0.09643890835685268,0.08384675102091081,0.3833659220502358,0.08464902403355802,0.30843269134739687,0.028095069155704644,25.0,25.0,25.0,25.0,25.0,25.0,24.0,0.985,0.0,0.0,1.0,1781038824100469339
1781038824243145518,1.0778673306211044e-6,57.295342189270265,103.1324254796718,0.001293235505504018,-0.00023264830245486816,-7.194329303275207e-7,-1.892648407075004e-6,0.0010880619743087838,-4.63555411908206e-7,-0.0019934024396998885,0.0005080745891922942,-2.107465939282885e-7,0.09643890835685268,0.08384675102091081,0.3833659220502358,0.08464902403355802,0.30843269134739687,0.028095069155704644,25.0,25.0,25.0,25.0,25.0,25.0,24.0,0.985,0.0,0.0,1.0,1781038824100469339
1781038824342491044,1.0778673306211044e-6,57.295342189270265,103.1324254796718,0.001293235505504018,-0.00023264830245486816,-7.194329303275207e-7,-1.892648407075004e-6,0.0010880619743087838,-4.63555411908206e-7,-0.0019934024396998885,0.0005080745891922942,-2.107465939282885e-7,0.09643890835685268,0.08384675102091081,0.3833659220502358,0.08464902403355802,0.30843269134739687,0.028095069155704644,25.0,25.0,25.0,25.0,25.0,25.0,24.0,0.985,0.0,0.0,1.0,1781038824100469339
1781038824443031658,1.0778673306211044e-6,57.295342189270265,103.1324254796718,0.001293235505504018,-0.00023264830245486816,-7.194329303275207e-7,-1.892648407075004e-6,0.0010880619743087838,-4.63555411908206e-7,-0.0019934024396998885,0.0005080745891922942,-2.107465939282885e-7,0.09643890835685268,0.08384675102091081,0.3833659220502358,0.08464902403355802,0.30843269134739687,0.028095069155704644,25.0,25.0,25.0,25.0,25.0,25.0,24.0,0.985,0.0,0.0,1.0,1781038824100469339
1781038824543387909,1.038384833058153e-6,57.29536494359785,103.13242546951255,0.0012517776773053595,-0.00022202640088042185,-7.23654429278687e-7,-1.8962910368653723e-6,0.001094861272806112,-5.038731674650811e-7,-0.0019869627580850653,0.0005109672267795851,-1.9718324220779487e-7,0.09833140735773067,0.0840350105650998,0.3750695144760418,0.08177040066823053,0.3026041414992594,0.027160257282966737,25.0,25.0,25.0,25.0,25.0,25.0,24.0,0.969,0.0,0.0,1.0,1781038824537314346
1781038824643423829,1.038384833058153e-6,57.29536494359785,103.13242546951255,0.0012517776773053595,-0.00022202640088042185,-7.23654429278687e-7,-1.8962910368653723e-6,0.001094861272806112,-5.038731674650811e-7,-0.0019869627580850653,0.0005109672267795851,-1.9718324220779487e-7,0.09833140735773067,0.0840350105650998,0.3750695144760418,0.08177040066823053,0.3026041414992594,0.027160257282966737,25.0,25.0,25.0,25.0,25.0,25.0,24.0,0.969,0.0,0.0,1.0,1781038824537314346
1781038824743083715,1.038384833058153e-6,57.29536494359785,103.13242546951255,0.0012517776773053595,-0.00022202640088042185,-7.23654429278687e-7,-1.8962910368653723e-6,0.001094861272806112,-5.038731674650811e-7,-0.0019869627580850653,0.0005109672267795851,-1.9718324220779487e-7,0.09833140735773067,0.0840350105650998,0.3750695144760418,0.08177040066823053,0.3026041414992594,0.027160257282966737,25.0,25.0,25.0,25.0,25.0,25.0,24.0,0.969,0.0,0.0,1.0,1781038824537314346
1781038824842885453,1.038384833058153e-6,57.29536494359785,103.13242546951255,0.0012517776773053595,-0.00022202640088042185,-7.23654429278687e-7,-1.8962910368653723e-6,0.001094861272806112,-5.038731674650811e-7,-0.0019869627580850653,0.0005109672267795851,-1.9718324220779487e-7,0.09833140735773067,0.0840350105650998,0.3750695144760418,0.08177040066823053,0.3026041414992594,0.027160257282966737,25.0,25.0,25.0,25.0,25.0,25.0,24.0,0.969,0.0,0.0,1.0,1781038824537314346
1781038824949082499,9.98877625846172e-7,57.29538782804451,103.13242545848098,0.0012105215097968811,-0.00021135112092957864,-7.275894068765476e-7,-1.8958330854325803e-6,0.0011007040396550617,-5.472447251449383e-7,-0.001975147303038378,0.000513295989640658,-1.8329544225333357e-7,0.10001987557806376,0.08422514560161444,0.36670808479787376,0.07891676045736525,0.2967401940844393,0.026233170676354715,25.0,25.0,25.0,25.0,25.0,25.0,24.0,0.953,0.0,0.0,1.0,1781038824944488686
1781038825050595503,9.98877625846172e-7,57.29538782804451,103.13242545848098,0.0012105215097968811,-0.00021135112092957864,-7.275894068765476e-7,-1.8958330854325803e-6,0.0011007040396550617,-5.472447251449383e-7,-0.001975147303038378,0.000513295989640658,-1.8329544225333357e-7,0.10001987557806376,0.08422514560161444,0.36670808479787376,0.07891676045736525,0.2967401940844393,0.026233170676354715,25.0,25.0,25.0,25.0,25.0,25.0,24.0,0.953,0.0,0.0,1.0,1781038824944488686
1781038825150574103,9.98877625846172e-7,57.29538782804451,103.13242545848098,0.0012105215097968811,-0.00021135112092957864,-7.275894068765476e-7,-1.8958330854325803e-6,0.0011007040396550617,-5.472447251449383e-7,-0.001975147303038378,0.000513295989640658,-1.8329544225333357e-7,0.10001987557806376,0.08422514560161444,0.36670808479787376,0.07891676045736525,0.2967401940844393,0.026233170676354715,25.0,25.0,25.0,25.0,25.0,25.0,24.0,0.953,0.0,0.0,1.0,1781038824944488686
1781038825249883283,9.98877625846172e-7,57.29538782804451,103.13242545848098,0.0012105215097968811,-0.00021135112092957864,-7.275894068765476e-7,-1.8958330854325803e-6,0.0011007040396550617,-5.472447251449383e-7,-0.001975147303038378,0.000513295989640658,-1.8329544225333357e-7,0.10001987557806376,0.08422514560161444,0.36670808479787376,0.07891676045736525,0.2967401940844393,0.026233170676354715,25.0,25.0,25.0,25.0,25.0,25.0,24.0,0.953,0.0,0.0,1.0,1781038824944488686
1781038825354543692,9.594315110422197e-7,57.29541081966364,103.1324254464722,0.0011695765370992298,-0.00020063536626824347,-7.312304008652981e-7,-1.8912509278649347e-6,0.0011053533663835766,-5.96909488736766e-7,-0.001958158212054756,0.0005149704075116696,-1.6902919398632078e-7,0.10150912802694592,0.08441523386307567,0.3582897257969674,0.0760964793271173,0.29084601706093827,0.025316610985530872,25.0,25.0,25.0,25.0,25.0,25.0,24.0,0.936,0.0,0.0,1.0,1781038825302017432
1781038825455545758,9.594315110422197e-7,57.29541081966364,103.1324254464722,0.0011695765370992298,-0.00020063536626824347,-7.312304008652981e-7,-1.8912509278649347e-6,0.0011053533663835766,-5.96909488736766e-7,-0.001958158212054756,0.0005149704075116696,-1.6902919398632078e-7,0.10150912802694592,0.08441523386307567,0.3582897257969674,0.0760964793271173,0.29084601706093827,0.025316610985530872,25.0,25.0,25.0,25.0,25.0,25.0,24.0,0.936,0.0,0.0,1.0,1781038825302017432
1781038825556356654,9.594315110422197e-7,57.29541081966364,103.1324254464722,0.0011695765370992298,-0.00020063536626824347,-7.312304008652981e-7,-1.8912509278649347e-6,0.0011053533663835766,-5.96909488736766e-7,-0.001958158212054756,0.0005149704075116696,-1.6902919398632078e-7,0.10150912802694592,0.08441523386307567,0.3582897257969674,0.0760964793271173,0.29084601706093827,0.025316610985530872,25.0,25.0,25.0,25.0,25.0,25.0,24.0,0.936,0.0,0.0,1.0,1781038825302017432
1781038825656158502,9.594315110422197e-7,57.29541081966364,103.1324254464722,0.0011695765370992298,-0.00020063536626824347,-7.312304008652981e-7,-1.8912509278649347e-6,0.0011053533663835766,-5.96909488736766e-7,-0.001958158212054756,0.0005149704075116696,-1.6902919398632078e-7,0.10150912802694592,0.08441523386307567,0.3582897257969674,0.0760964793271173,0.29084601706093827,0.025316610985530872,25.0,25.0,25.0,25.0,25.0,25.0,24.0,0.936,0.0,0.0,1.0,1781038825302017432
