timestamp_ns,joint_1_pos,joint_2_pos,joint_3_pos,joint_4_pos,joint_5_pos,joint_6_pos,joint_1_vel,joint_2_vel,joint_3_vel,joint_4_vel,joint_5_vel,joint_6_vel,joint_1_current,joint_2_current,joint_3_current,joint_4_current,joint_5_current,joint_6_current,joint_1_temp,joint_2_temp,joint_3_temp,joint_4_temp,joint_5_temp,joint_6_temp,bus_voltage,bus_current,accel_x,accel_y,accel_z,timestamp_ns
1781042400082905178,0.0014734829330629812,57.304625239550376,103.14134767488396,-0.007382112134247195,-0.000959659520836163,-0.0018583654037036775,0.0268084903640458,0.10330403455578722,0.05717020376751072,-0.013779968739335562,0.011286866661321766,-0.029066361132658737,5.165925197063161,5.80713072136854,3.274773905605357,0.4536215909028023,0.3506923908936204,0.1837523831824328,25.0,25.0,25.0,25.0,25.0,25.0,24.0,15.236,0.0,0.0,1.0,1781042400063876317
1781042400182598387,0.0013247080102814124,57.304941677076485,103.1416585150098,-0.00790680059706163,-0.001201627539226137,-0.0016888336233241029,-0.0240066736227311,-0.11942780663790556,-0.07147302608465843,0.06829194329228588,0.00003448155383764579,0.0227855790173113,5.04014684503512,6.034556152941698,2.302945538121084,0.3400720429123831,0.2934198808515676,0.07386237068556323,25.0,25.0,25.0,25.0,25.0,25.0,24.0,14.085,0.0,0.0,1.0,1781042400173763335
1781042400282326128,0.0013338502757272218,57.305518508104385,103.14188473315764,-0.007838424428801484,-0.0011279203748855604,-0.0016922868179639237,-0.021765227920058673,-0.0654680717802988,-0.03615333471252784,0.039612212243118096,-0.007454393434492773,0.02338897601324023,5.226275501065094,6.075221557309372,2.3026510160282365,0.31790431850521045,0.2862468771246486,0.06560750261855812,25.0,25.0,25.0,25.0,25.0,25.0,24.0,14.274,0.0,0.0,1.0,1781042400260235654
1781042400385677312,0.001472486041787768,57.30452103159712,103.14103653339888,-0.006509833938143279,-0.0007584437053456266,-0.0019062979216164528,0.028567692720307344,0.11182998959604595,0.06257126705540288,-0.0085517280331017,0.006575017601124323,-0.029845324928282253,4.860410058906773,5.823330766178399,3.2425428116688733,0.457116867834964,0.3380993811743275,0.18235720744225237,25.0,25.0,25.0,25.0,25.0,25.0,24.0,14.904,0.0,0.0,1.0,1781042400368363431
1781042400482639408,0.0012370811269035496,57.3046063672872,103.14247918496562,-0.008478353314053447,-0.0021005950340156256,-0.0015182970118296666,0.02365726425995364,0.05684429144574058,0.04541851319941688,-0.04691068425226966,-0.005765566358968665,-0.023846436959547045,5.427382912896234,5.67391608449891,3.2901081969289563,0.4546971821775539,0.3232053334029813,0.1842008667620956,25.0,25.0,25.0,25.0,25.0,25.0,24.0,15.354,0.0,0.0,1.0,1781042400464588624
1781042400582270277,0.0012056430708139404,57.30287686136027,103.1418367236726,-0.008315954266861995,-0.0023349317430491974,-0.0014074119675284024,-0.019938333803480635,-0.05705569184759765,-0.04332156260015374,0.026288793668788675,0.00018736798739989107,0.02199480631910968,5.278982400464733,6.0459339748677685,2.2720082069312464,0.3205963865357059,0.3017527066165864,0.06609198635905021,25.0,25.0,25.0,25.0,25.0,25.0,24.0,14.285,0.0,0.0,1.0,1781042400570970654
1781042400682106791,0.0012679571571002366,57.3040104236368,103.14198659163728,-0.00856015404763842,-0.0019415497674318215,-0.0015170639312618189,-0.01973454432531622,-0.08489835594769539,-0.04465068745295245,0.04130452920896069,-0.0028896775024903503,0.01730157594526056,5.062781005417951,6.059716071555317,2.258609376899731,0.3370196608900132,0.30024132879943316,0.07245948046550568,25.0,25.0,25.0,25.0,25.0,25.0,24.0,14.091,0.0,0.0,1.0,1781042400673398450
1781042400782313593,0.00132741066471105,57.30411023242578,103.141284461823,-0.0069523119043614,-0.0012227595745170233,-0.0016746024955240383,-0.024829164075861727,-0.04819160017305868,-0.02320278454145638,0.012393694111607949,-0.011177360044347351,0.023522787961616116,4.921212198572223,6.059562196172823,2.296153102547874,0.3084706743295822,0.3137287320316311,0.06512847728027461,25.0,25.0,25.0,25.0,25.0,25.0,24.0,13.964,0.0,0.0,1.0,1781042400766451706
1781042400882344896,0.0012368661984536252,57.305021627054664,103.14170178917102,-0.008293526061481012,-0.001290020034653184,-0.0015208848202161846,-0.02086452655439963,-0.06251370816960637,-0.027339520719389297,0.020765196150753108,-0.016060174263476164,0.02566506846292239,5.234682392583531,6.051686483215736,2.2680564793452724,0.3198616545683604,0.3056154992882549,0.06650562187696651,25.0,25.0,25.0,25.0,25.0,25.0,24.0,14.246,0.0,0.0,1.0,1781042400862068208
1781042400981803314,0.001450025887577984,57.30466251696198,103.14120261496208,-0.007032704458276409,-0.000881719223964635,-0.0018468909433622049,0.025325823915446265,0.07924203933422516,0.040747135722561945,0.0014309797052001953,0.01504460311170246,-0.02734553528358504,4.64673854196429,5.856100204785703,3.2729334433904715,0.4500009109007838,0.3286477764747742,0.178418600357421,25.0,25.0,25.0,25.0,25.0,25.0,24.0,14.733,0.0,0.0,1.0,1781042400973716360
1781042401082175367,0.0013452832706296824,57.30511771081082,103.1417243300307,-0.008055735086001761,-0.0012111852132428982,-0.0016706021500063428,0.020285804042573293,0.05932526592182202,0.023238941666455088,-0.042618809902799794,0.015037279500090593,-0.018522880238564396,5.140833020874019,5.774636818613981,3.2719391254577808,0.46390567278606504,0.329426279450792,0.18620855694048308,25.0,25.0,25.0,25.0,25.0,25.0,24.0,15.167,0.0,0.0,1.0,1781042401065716827
1781042401181820182,0.0012816480709295446,57.304256725579066,103.14135000268512,-0.007323693760126738,-0.0012337390418600946,-0.001705302874064057,-0.02081662139790636,-0.07290561966695062,-0.0338341621437889,0.05948278703590889,-0.008327994183337701,0.014996759280891832,4.959286512082705,6.062101810342829,2.2861340131612926,0.31158677447618877,0.30790859726645153,0.06533615525183006,25.0,25.0,25.0,25.0,25.0,25.0,24.0,13.992,0.0,0.0,1.0,1781042401174649841
1781042401282289728,0.0013304174325633274,57.30445533886742,103.14250800709964,-0.007624492111166613,-0.002094613235830781,-0.0016062751766032423,-0.03389330766562329,-0.13159321905719226,-0.01708210317632088,-0.01793067089375077,-0.0537872383270606,0.0374001798533658,5.291097461625325,6.2025744661492075,2.2525324616356976,0.323026591797757,0.31615094807709454,0.06813148177476529,25.0,25.0,25.0,25.0,25.0,25.0,24.0,14.454,0.0,0.0,1.0,1781042401266106841
1781042401382589693,0.0014306019442420805,57.30317086372343,103.14249264694703,-0.007443360906310979,-0.0025066787153390944,-0.0015955978430255192,0.017664778912382592,0.09726173208446422,0.04525378511055864,-0.06764465757193976,0.011617684049750209,-0.01733229217922439,5.229307531567851,5.793339469267934,3.2806765973636365,0.4577634189773607,0.33044996246498226,0.1849376635030048,25.0,25.0,25.0,25.0,25.0,25.0,24.0,15.276,0.0,0.0,1.0,1781042401380160849
1781042401482373734,0.001260683932498727,57.302950307651834,103.142852831034,-0.008628006739773915,-0.002945140145477467,-0.0015762618350236132,0.018894021012254677,0.06690242029717754,0.025274272551027672,-0.05033307299200807,0.012654013609811506,-0.020008501819653315,5.381152955719453,5.750037420570505,3.350404688465536,0.42154572478237895,0.3219950963777441,0.17495492345145122,25.0,25.0,25.0,25.0,25.0,25.0,24.0,15.4,0.0,0.0,1.0,1781042401476547423
1781042401581726278,0.0012822357098272066,57.30292595522316,103.1425528593579,-0.008589087673283206,-0.0027125886743842188,-0.001545005528152626,0.027620834702246893,0.10024075947530986,0.0342681441600508,0.01141871013922357,0.029860392318037218,-0.030273658556891098,5.246392489269701,5.784721495667393,3.3101832392902204,0.436897236470151,0.3252942056265336,0.17862329777617195,25.0,25.0,25.0,25.0,25.0,25.0,24.0,15.282,0.0,0.0,1.0,1781042401576868540
1781042401682095148,0.0013730673629691627,57.30380613745719,103.1419385193289,-0.0065625240747565665,-0.0017214929860033836,-0.001812355430910526,0.02674093438780159,0.0968505533786728,0.037898704126143955,-0.01612759376406305,0.02208807464071571,-0.02564092939841456,4.993334639346874,5.804989626827631,3.285451322692834,0.4540833938342184,0.32617360979416105,0.18209569843166895,25.0,25.0,25.0,25.0,25.0,25.0,24.0,15.046,0.0,0.0,1.0,1781042401665149160
1781042401785470634,0.0013445458441984765,57.30451489157038,103.14213003648096,-0.007591959451018625,-0.001743459859791714,-0.0016793101561163944,-0.01952848077795305,-0.06680243384505988,-0.031421747924085995,0.06064637384302199,-0.007229505656392057,0.01637467540835248,5.161797255516279,6.049656808930798,2.260115722940511,0.3216231833542297,0.30808057389315413,0.06747758384607151,25.0,25.0,25.0,25.0,25.0,25.0,24.0,14.169,0.0,0.0,1.0,1781042401778068405
1781042401881986468,0.0013559292515867112,57.304538701924045,103.14221785291164,-0.007340163540599004,-0.0017520034565032094,-0.0016681434045197935,-0.02220983537759522,-0.07052576295224208,-0.022551632344086588,0.005894914018356499,-0.02542890983151961,0.03165767712022072,5.272392541076853,6.055812401433236,2.27949895615689,0.3129807982607815,0.3107063385848045,0.06422519353816336,25.0,25.0,25.0,25.0,25.0,25.0,24.0,14.296,0.0,0.0,1.0,1781042401874329008
1781042401982080150,0.0013415220020086482,57.30413170027272,103.14223020868312,-0.007416500504614434,-0.0019314598170064117,-0.0017216178507738896,-0.03051243690846403,-0.08314585451468971,-0.026955551978415267,-0.02837242264109437,-0.027857821489889065,0.03646983496509486,5.352428362295437,6.058322721382926,2.235828568651141,0.32751435170632287,0.3174072496661354,0.06775854972828943,25.0,25.0,25.0,25.0,25.0,25.0,24.0,14.359,0.0,0.0,1.0,1781042401968022587
1781042402082073338,0.0014905627312514125,57.303721452885675,103.142200820425,-0.006848720851123307,-0.001981200329270436,-0.0018175980295846773,0.02676081785285331,0.11120998657074668,0.06486427665320744,-0.013731255283077996,0.0034853604444116944,-0.029619798811718324,4.904113918797265,5.866867350524847,3.332982571116119,0.4419963788353537,0.3138278470613468,0.1774149109293229,25.0,25.0,25.0,25.0,25.0,25.0,24.0,15.037,0.0,0.0,1.0,1781042402073618233
1781042402182300131,0.0013859039667150476,57.304031508985304,103.14213348938723,-0.007407555114679643,-0.001882908661779056,-0.0017627271043026266,0.020208305572820537,0.05654461326340344,0.014722009158158852,0.003080752106989827,0.023537758755371087,-0.02282901755806786,5.19964758749544,5.752559790163604,3.2805964063834683,0.45516199992087447,0.3383770528520883,0.18437377178383305,25.0,25.0,25.0,25.0,25.0,25.0,24.0,15.211,0.0,0.0,1.0,1781042402169971438
1781042402282567540,0.0013843494313533627,57.303603378765125,103.14243556250004,-0.007226579960449209,-0.0022899716059328404,-0.0017961558066692724,-0.02666969200957922,-0.0964060785473952,-0.035487059279312116,-0.00883506859769249,-0.02407881679002393,0.031754021831181506,5.257203051018735,6.088904959887155,2.25304247206998,0.3388173385668611,0.3095098066897828,0.07186161627914435,25.0,25.0,25.0,25.0,25.0,25.0,24.0,14.319,0.0,0.0,1.0,1781042402254150474
1781042402382019335,0.0014346877533727902,57.30377037177858,103.14287977864694,-0.007470548977777623,-0.0024127365781447165,-0.0017503918149086096,0.01475051498617423,0.08145727660030444,0.034840120400019624,-0.07206081968394182,0.01445576927448513,-0.01523367875606541,5.333745056804993,5.762940223659104,3.3055316395078753,0.46636178153072566,0.3259809285165545,0.18824192385429345,25.0,25.0,25.0,25.0,25.0,25.0,24.0,15.383,0.0,0.0,1.0,1781042402378431771
1781042402482290201,0.0015667904087488993,57.30404936967605,103.1431849779771,-0.006537705045829716,-0.0024688522807949378,-0.0018860164051710151,0.0313307235108347,0.10004221045496849,0.05810271446814598,0.010534895254509903,0.011263064213361687,-0.035399605555703616,4.996507524562131,5.852101911824771,3.336294507004016,0.4403002270757852,0.31485187332293335,0.1773682837459075,25.0,25.0,25.0,25.0,25.0,25.0,24.0,15.117,0.0,0.0,1.0,1781042402462919059
1781042402582007588,0.001289867016863549,57.30124568260474,103.14278598595334,-0.007917243264092074,-0.003581668018368779,-0.001606954043173401,-0.01968563640617051,-0.1084977186090214,-0.013596735848088532,0.042915527429405,-0.044495401233516314,0.0266843466683141,5.154190968282109,6.278968601118806,2.296454114135014,0.32716277073435507,0.3015181622310737,0.07033718037438874,25.0,25.0,25.0,25.0,25.0,25.0,24.0,14.429,0.0,0.0,1.0,1781042402577324821
1781042402682286212,0.0011861222972625975,57.3006420487761,103.1428480658383,-0.007797167200801891,-0.0038179198092449817,-0.0015123288156936251,-0.019250466648744063,-0.08197716472493405,-0.04163438515089933,0.0750178404409842,-0.0025749407313992354,0.014454283886100917,4.8241203341869765,6.069362771700522,2.310896010936709,0.31748435820022686,0.304844419518287,0.06827785306345893,25.0,25.0,25.0,25.0,25.0,25.0,24.0,13.895,0.0,0.0,1.0,1781042402662473256
1781042402782249009,0.0013128553606183708,57.30176336405942,103.1434660677336,-0.007335066613152838,-0.0037687116714551576,-0.001600035495664935,-0.026387846217843985,-0.0785333027713598,-0.03284218389161792,0.017275678794683034,-0.016300729502417226,0.023345216415798477,5.345020355403704,6.096204598826213,2.2496341697736018,0.3139993914454622,0.3118805944460232,0.06425491940828412,25.0,25.0,25.0,25.0,25.0,25.0,24.0,14.381,0.0,0.0,1.0,1781042402761942396
1781042402882300115,0.0012355040997637172,57.30134732693898,103.14284593228416,-0.007732282177817575,-0.0036130130659323767,-0.001612455157709764,-0.02279535954692964,-0.09141622746009057,-0.04932082496743576,0.021121217078729392,-0.010445685433470525,0.02542157649177589,5.5213886383146695,6.0924291261972945,2.2415792114966617,0.3410162570871568,0.300662813592652,0.07033449954434727,25.0,25.0,25.0,25.0,25.0,25.0,24.0,14.567,0.0,0.0,1.0,1781042402865438802
1781042402982219338,0.0013385785469126,57.30192575757508,103.14239227236703,-0.006786142248313667,-0.0029426019586095316,-0.0016973145821477858,-0.02333099578772353,-0.08049789283481996,-0.04704540246742195,0.04161294234398682,-0.001708813405979321,0.019262843364708456,4.960694584966277,6.0806797425472086,2.2881111952390825,0.31351114088167675,0.30926510105581145,0.06620674712548924,25.0,25.0,25.0,25.0,25.0,25.0,24.0,14.018,0.0,0.0,1.0,1781042402971885172
1781042403082552400,0.0014072222776746188,57.30204541532272,103.14241017367893,-0.0067047382411489906,-0.002951293466634385,-0.0016477524869831198,-0.025644726818860136,-0.08925595792723232,-0.04011035002901255,-0.03309752991191863,-0.018722290449477368,0.029590984212415933,4.915112842392157,6.075280719047924,2.275225865928711,0.31008918778365596,0.29936510617343765,0.06560857649033976,25.0,25.0,25.0,25.0,25.0,25.0,24.0,13.941,0.0,0.0,1.0,1781042403066154719
1781042403184491827,0.001369618868426593,57.3017251082466,103.14241220902188,-0.006325040728908089,-0.0030794980682469783,-0.0017425956726696615,-0.021176258484802778,-0.06189200851813852,-0.0205928739517692,0.004678252150384458,-0.02385069880234593,0.030336771966464355,5.2560217900002515,6.063176935931307,2.2870668130308283,0.3097339765834057,0.29637225596162897,0.06295123915006243,25.0,25.0,25.0,25.0,25.0,25.0,24.0,14.275,0.0,0.0,1.0,1781042403169989571
1781042403283325285,0.0012905035319232703,57.30158857662983,103.14280571599411,-0.007316166382143634,-0.003505148042115311,-0.0015707756504692498,-0.026477552228639623,-0.10460660672886436,-0.04737020054162047,-0.004754944034294923,-0.02036793976959996,0.03222209219118305,5.32420237991275,6.068449165365216,2.267155368721745,0.32612988822578537,0.30173868542856463,0.06767284723626978,25.0,25.0,25.0,25.0,25.0,25.0,24.0,14.355,0.0,0.0,1.0,1781042403266146633
1781042403382150883,0.0013063928212418516,57.30171864397987,103.14281455035804,-0.007372045042105452,-0.0034247393126423673,-0.0016623907504589436,-0.028029452827894583,-0.06596299215269633,-0.02208089337690422,-0.04633295336078357,-0.027083536790086436,0.0366017143313866,5.324256081762267,6.080965612214272,2.2431415233485623,0.31948217431925424,0.31298115754607886,0.06546076099661238,25.0,25.0,25.0,25.0,25.0,25.0,24.0,14.346,0.0,0.0,1.0,1781042403369260312
1781042403482088084,0.0013780837076172226,57.301499369574344,103.14224454563124,-0.006711775949728227,-0.003000863425540117,-0.0017242872975620632,0.023348723887597036,0.06452522959664922,0.03046992495686257,-0.0009323288410314836,0.009130689127342375,-0.022825795492680427,4.58456694989593,5.853647067403282,3.2403890118733205,0.4479997719893773,0.3364194477413599,0.17741440079484455,25.0,25.0,25.0,25.0,25.0,25.0,24.0,14.64,0.0,0.0,1.0,1781042403479495759
1781042403585684322,0.001476858150045,57.301996331421,103.14296054398773,-0.006745281587369772,-0.0032812717642109845,-0.0018878638443218876,0.023424380040147,0.08034434860840678,0.03842624861217484,-0.02785433838069982,0.013533422953063872,-0.024694046047693274,5.362208051795962,5.697278917334076,3.291180526278202,0.44189196985686857,0.3447296627657801,0.181336398533785,25.0,25.0,25.0,25.0,25.0,25.0,24.0,15.319,0.0,0.0,1.0,1781042403573221636
1781042403682522179,0.00124533144376045,57.30073509532646,103.14289170636523,-0.007838677942012023,-0.003794049446162802,-0.001580658275758606,0.022972562103132105,0.0626690304519541,0.03558987582818964,-0.027277630252917674,0.0027161586121741093,-0.020181253760564743,5.022279895141094,5.811280025123884,3.265366327657632,0.44681087723450086,0.35696054536935223,0.18056120492565092,25.0,25.0,25.0,25.0,25.0,25.0,24.0,15.083,0.0,0.0,1.0,1781042403659440776
1781042403781716642,0.001373587759589965,57.30123363527023,103.14323814947852,-0.006904326967630285,-0.0038753309743018343,-0.0015911742668209272,-0.02097042053981354,-0.06980854093663835,-0.03930657445989084,0.02737430764080707,-0.003696253548182412,0.02235232096868263,5.186420826154171,6.1113595660897895,2.3035535039352246,0.3162131292011239,0.2884347538484836,0.06550373786185665,25.0,25.0,25.0,25.0,25.0,25.0,24.0,14.271,0.0,0.0,1.0,1781042403780867474
1781042403882497005,0.00153138923440887,57.300848255496454,103.14307903092866,-0.005745754206357515,-0.00380371609073411,-0.001841602342620632,-0.013673071778144622,-0.08024767063361576,-0.02135966149940467,0.047156750833996224,-0.02502523849483318,0.019268172682346492,5.047865498607487,6.25964539650379,2.368435082591519,0.3036684828383288,0.26346456352294406,0.06299045964580069,25.0,25.0,25.0,25.0,25.0,25.0,24.0,14.306,0.0,0.0,1.0,1781042403879020112
1781042403982711977,0.0012693116886980042,57.30124032989645,103.1426437582558,-0.0073756328381308685,-0.00344704213726189,-0.0014918965104721877,-0.018011753433156658,-0.09213241692350144,-0.05798749491061253,0.07391268260623575,0.0041440768212712325,0.01607876220861352,4.765064212081461,6.110844208321718,2.3762968732684415,0.3173772953194594,0.27749992509903126,0.06845864177075645,25.0,25.0,25.0,25.0,25.0,25.0,24.0,13.916,0.0,0.0,1.0,1781042403971635349
1781042404082161979,0.001426059854518673,57.30104944904071,103.14225666560638,-0.005706108511016261,-0.0031880442871787583,-0.0017160086256627091,-0.012981332735995658,-0.052849364565646456,-0.026703246275611384,0.07994265936347507,-0.00464911822477123,0.0100272916469063,4.75271868860803,6.126862873927845,2.3592387098168635,0.31288034964367295,0.2871604860971865,0.06752450149811662,25.0,25.0,25.0,25.0,25.0,25.0,24.0,13.906,0.0,0.0,1.0,1781042404066196724
1781042404181677967,0.0013351282892239231,57.30121726767574,103.1428537611786,-0.007630171408957953,-0.0037487756198408433,-0.001537439089486555,0.014010216450595666,0.07098405315457093,0.039823795974922534,-0.11981282482902984,-0.004681230214957158,-0.0121212454064753,5.740480042090153,5.596368841062572,3.271790224882165,0.45494651247588547,0.365289544289512,0.1874276876290076,25.0,25.0,25.0,25.0,25.0,25.0,24.0,15.616,0.0,0.0,1.0,1781042404180381089
1781042404281987779,0.0011637031753305622,57.29920435909172,103.14389319746728,-0.009748023653743014,-0.005330943254325063,-0.0010467831034035124,0.023924330129265516,0.05968105264028966,0.040841409680416135,0.0011278616147267528,0.008305566161496544,-0.02881685802573159,5.181475301301536,5.778028675999376,3.323837203098214,0.4418629724408747,0.3329001722475379,0.1792214763217751,25.0,25.0,25.0,25.0,25.0,25.0,24.0,15.237,0.0,0.0,1.0,1781042404273499739
1781042404382434248,0.0008004090779965159,57.28412323222083,103.13942290520448,-0.00517690864822269,-0.009953600828269273,-0.0008876801615300566,0.030559817814138305,-0.044153593745715175,0.007783126081364094,0.08141393574682348,-0.02584435241335505,-0.05070350726926178,6.216660861869325,5.967104062567271,3.5998695557046116,0.42622054863805664,0.28605367410357935,0.18131761167133764,25.0,25.0,25.0,25.0,25.0,25.0,24.0,16.677,0.0,0.0,1.0,1781042404366448248
1781042404482195169,0.0004736969585212666,57.27783792034306,103.13672865742222,-0.004460734744949506,-0.01148143763549878,-0.0010566768741159629,-0.011525510827722608,-0.02081810422758534,-0.01615347467264442,-0.24120255396998191,-0.018862832082769513,0.008958627596868343,7.345997719765837,5.829516669169001,3.618925805445126,0.4838164530071454,0.3270671378250159,0.2085169284846,25.0,25.0,25.0,25.0,25.0,25.0,24.0,17.814,0.0,0.0,1.0,1781042404459147364
1781042404585695764,0.000405228833299632,57.27647201257658,103.13590167791708,-0.0032379462361334164,-0.011555328265613124,-0.0009493404759080984,0.005261032864978041,0.013908788067083323,0.0020460645643088004,0.15885736263381894,0.009832339165285447,-0.003764238403290487,5.274814595698004,6.108455469532706,2.2115569510931152,0.3134543794688032,0.2919153707907495,0.06424391746524077,25.0,25.0,25.0,25.0,25.0,25.0,24.0,14.264,0.0,0.0,1.0,1781042404576567596
1781042404685670640,0.0004331761628512426,57.27697770295079,103.13621305593888,-0.003260900404376056,-0.011518382628441315,-0.0010351069267696374,-0.003293031621786032,-0.03806946693413909,-0.02164003746745979,0.14964200490352875,0.006597586762277432,0.00668094488391418,6.178569614515499,6.0132339799302805,2.0648769400921667,0.3138700143367133,0.3103995587129001,0.05769874088251319,25.0,25.0,25.0,25.0,25.0,25.0,24.0,14.939,0.0,0.0,1.0,1781042404672130717
1781042404782435511,0.0004623828451066613,57.2771948819425,103.13626603470564,-0.003097322743313094,-0.011544455943767512,-0.001024455249997308,-0.007731998373683464,-0.05265793659032577,-0.028098177406517447,0.16404948901922284,0.0017851087438792363,0.012806300429514656,7.632190520509043,5.993882939254785,1.917608347654279,0.3025032516428898,0.32077341911112933,0.04386995376296501,25.0,25.0,25.0,25.0,25.0,25.0,24.0,16.211,0.0,0.0,1.0,1781042404772207288
1781042404882200715,0.0004648433706422649,57.27688833132622,103.13610616526344,-0.002944158350602959,-0.011452395735612991,-0.001056802627467751,-0.00004752257567827408,-0.02643896444553421,-0.01182424266926034,0.14123701590704235,0.0024789237119111586,0.003728183098707672,5.463679601708637,6.034838868614995,2.1600582031208195,0.3189159092789933,0.30698114794380155,0.06447444002520093,25.0,25.0,25.0,25.0,25.0,25.0,24.0,14.349,0.0,0.0,1.0,1781042404862927237
1781042404981664701,0.0004554031531613576,57.27736174833345,103.13635818019442,-0.003949518668316881,-0.01155562102540522,-0.0010610133254405503,0.0063253567051885316,0.031092834262124502,0.020684070946484043,-0.1384585025142246,-0.0035924808238195953,-0.010803573899337936,6.897974549399601,5.795894100019946,3.5812730731929854,0.45699666299280106,0.32539659289803796,0.19650969393369808,25.0,25.0,25.0,25.0,25.0,25.0,24.0,17.254,0.0,0.0,1.0,1781042404980896849
1781042405085696334,0.000466600365645774,57.27706708667992,103.136338577863,-0.003694574984255928,-0.01165438574179846,-0.0010965790385196051,-0.001256583302248558,0.03343806725528477,0.013332681549575185,-0.15819621013149973,-0.012931663198922704,-0.00028164834089020177,5.463363235965413,5.9226522547035545,3.5037035105746623,0.43636371977821325,0.3005955617427365,0.17933172224185862,25.0,25.0,25.0,25.0,25.0,25.0,24.0,15.806,0.0,0.0,1.0,1781042405066360570
1781042405182785982,0.00045914961284063176,57.27720557193745,103.13622349894904,-0.00388909804928488,-0.01150600424610213,-0.001049225846951982,-0.0043812386105221346,0.016474644318940704,0.0043744176238237256,-0.21869029011796365,-0.006878151135055245,0.00116591242024237,7.218272420363019,5.826004827084031,3.5836598561502644,0.48540617223237176,0.3260138352533661,0.20790743795290745,25.0,25.0,25.0,25.0,25.0,25.0,24.0,17.647,0.0,0.0,1.0,1781042405161437209
1781042405281800363,0.0004494598674464101,57.276658137020895,103.1360958575218,-0.0029489652281542013,-0.011632734029976886,-0.0010302912757955474,0.020363695216835863,0.05473158070771416,0.030295736121312575,0.218602276094701,0.011718150561256472,-0.024670776526219112,4.249629881397366,6.216956790433071,2.385160803982842,0.3366348292161441,0.2734984032358222,0.07868251052420396,25.0,25.0,25.0,25.0,25.0,25.0,24.0,13.541,0.0,0.0,1.0,1781042405271284291
1781042405382542372,0.00041929847060354617,57.27683742134836,103.13610972560464,-0.0033294177796957623,-0.011565498676357549,-0.0010737556344631463,-0.011737173839682848,-0.07719901701745738,-0.04204012282714978,0.14486931864674776,0.001815642066368184,0.01646972174764732,7.223810962014703,6.0730857829072145,1.9792088161904984,0.3000542071818917,0.30933456847522434,0.0460658806382808,25.0,25.0,25.0,25.0,25.0,25.0,24.0,15.932,0.0,0.0,1.0,1781042405367760052
1781042405482463277,0.0004253783775558864,57.2770676044694,103.13614967056768,-0.003947566518848378,-0.01151459816488,-0.0010551907229045315,-0.007936264306045316,0.005359611482951281,-0.006684232402330901,-0.220223406231582,-0.0029719739463495067,0.006991371035505846,7.004800401079283,5.793309595998084,3.556108901830735,0.4861039365041491,0.3312846849418879,0.20685703219518647,25.0,25.0,25.0,25.0,25.0,25.0,24.0,17.378,0.0,0.0,1.0,1781042405477047238
1781042405582416541,0.0003701410354710396,57.27686172275847,103.1360042740186,-0.004202224307870461,-0.011573312336587815,-0.0009385551627877989,-0.02145328125631515,-0.032566653573598905,-0.021558841701914418,-0.2948661972606886,-0.024995930496027257,0.02406870588644129,6.492304774446358,5.8510208055853745,3.4947891459311853,0.47664636258716014,0.32700404915539344,0.20011895099119803,25.0,25.0,25.0,25.0,25.0,25.0,24.0,16.842,0.0,0.0,1.0,1781042405568588430
1781042405683573848,0.0003733820108649731,57.2766651949151,103.13600819835246,-0.004003279714633661,-0.011604980927060736,-0.0009646717619800612,-0.005734166768067984,-0.009270423609647869,0.001921514583194932,-0.1819058336618136,-0.017709344689282713,0.0064121698492873615,5.81272956436289,5.8349146786516695,3.45492166793084,0.448523482106752,0.32554627627331195,0.18598683877433503,25.0,25.0,25.0,25.0,25.0,25.0,24.0,16.063,0.0,0.0,1.0,1781042405665036647
1781042405782583335,0.0003157820714565609,57.27604859551463,103.13553738465728,-0.003431519820815205,-0.01152552259263368,-0.0008369254033065247,0.0013118488970585902,-0.01809196250499122,-0.004566651885291831,0.10091007996115528,-0.004863173152447286,-0.0009168149115275628,3.7589054219724782,6.077148894616769,2.360313603158374,0.3363146297043449,0.30236578635486405,0.08246303427351945,25.0,25.0,25.0,25.0,25.0,25.0,24.0,12.918,0.0,0.0,1.0,1781042405779114593
1781042405882721797,0.0004543940862027027,57.27733154940616,103.13637279657372,-0.003475017776529192,-0.011604123097351315,-0.0010213610702402454,-0.011559559826954094,-0.05701396553999719,-0.029928902550293415,0.13551985160693852,-0.0006326794617810158,0.016750573205553787,8.057924939551878,6.040315020022704,1.890051061418894,0.29060806179112586,0.3192611727120485,0.03681327391876301,25.0,25.0,25.0,25.0,25.0,25.0,24.0,16.635,0.0,0.0,1.0,1781042405876022082
1781042405981996094,0.0004638509271585208,57.27681474571667,103.13619753708596,-0.0027727222647050795,-0.011614996820680618,-0.001064938967033524,-0.006611402777137382,-0.04838820006585229,-0.03431653311392516,0.12947915880758068,0.010244206447541955,0.010135323083874536,5.643477355081603,5.996493210964355,2.125153173564089,0.3256797878895136,0.307282824007881,0.0651837767860698,25.0,25.0,25.0,25.0,25.0,25.0,24.0,14.463,0.0,0.0,1.0,1781042405974390277
1781042406082248486,0.0003920919998292952,57.27691038922514,103.13593462158876,-0.003291624238044956,-0.011401460968672388,-0.0009711563419438234,0.0012836138554489958,-0.01709466004296964,-0.01260049997090938,0.16469591894472357,0.008732293351794845,0.0019114691120933468,6.122419126096628,6.032169404483536,2.1043231473891373,0.2962840218213992,0.3081550244293291,0.05246788298493763,25.0,25.0,25.0,25.0,25.0,25.0,24.0,14.916,0.0,0.0,1.0,1781042406072504899
1781042406182367963,0.00037138430642822713,57.27690616227869,103.13600833256972,-0.003639910611086821,-0.011585763455753647,-0.0008738571037240802,0.006214667505621036,0.015702277175107072,0.011676154122511093,0.19500825528119956,0.0028226544676363662,-0.0012713878338815269,7.413138347428438,6.084633811017932,1.9900822168894772,0.2665948053897489,0.3140675747051356,0.03431555146858238,25.0,25.0,25.0,25.0,25.0,25.0,24.0,16.103,0.0,0.0,1.0,1781042406165125805
1781042406282362906,0.0004717128537011174,57.27702750304335,103.1362690553419,-0.00346912783314282,-0.01161043334565633,-0.0010810083251489105,0.02080966775953257,0.07661860996468105,0.04189771130754693,-0.05166196390070019,0.014035438128778725,-0.026536079298696516,6.353748458716612,5.821304155004547,3.496164319203036,0.4548021353508254,0.32675362473561903,0.19169317602365984,25.0,25.0,25.0,25.0,25.0,25.0,24.0,16.644,0.0,0.0,1.0,1781042406279071629
1781042406385671336,0.000378132287749371,57.27665185337539,103.1358558607318,-0.0037265560275166858,-0.01148359661302347,-0.0009364204144492404,-0.0033214727970286135,0.016227656374807147,0.00901114344772182,-0.16802199452630506,-0.01180528840036729,0.003580132283120581,5.323103096648842,5.821725087599936,3.385663025685838,0.45244154968335537,0.331647672852231,0.18380891207079209,25.0,25.0,25.0,25.0,25.0,25.0,24.0,15.498,0.0,0.0,1.0,1781042406372540935
1781042406482147976,0.0003875681338631156,57.2770788274352,103.13615171390884,-0.0043745797373706775,-0.011581845098646876,-0.0009237189934963076,-0.0034059917616335094,0.0015087728678955738,0.0022260229531485508,-0.20502605165513316,-0.0036257563641933846,0.0001548862381403869,7.268149902070853,5.8073100450551625,3.5675220380391943,0.4932227364520651,0.32376911121508944,0.21059448544269976,25.0,25.0,25.0,25.0,25.0,25.0,24.0,17.671,0.0,0.0,1.0,1781042406460250290
1781042406582236833,0.0004952524305267986,57.27736974047964,103.13637097944648,-0.002970851710178005,-0.011546792217962397,-0.001081011982529424,-0.012204584218081214,-0.06311074009411873,-0.038471364684861786,0.13381584761457985,0.004535257633695835,0.016388524458251036,7.661473308191322,6.039639364870997,1.9340863119333709,0.28983222292044203,0.3149291913234408,0.03925975344433288,25.0,25.0,25.0,25.0,25.0,25.0,24.0,16.279,0.0,0.0,1.0,1781042406567780197
1781042406685677307,0.00031066868191966174,57.27614276018968,103.1357367002294,-0.003970682147631401,-0.011637577960912289,-0.000865655968969931,-0.00981794435545214,-0.0257523980747128,-0.009930758497828844,-0.1680212282970517,-0.01856829773706368,0.0142916984771633,4.388440851856959,5.839341458475295,3.311243184096647,0.4310043884915898,0.32816026202925314,0.17018570412443504,25.0,25.0,25.0,25.0,25.0,25.0,24.0,14.468,0.0,0.0,1.0,1781042406665952670
1781042406781795429,0.0004183698459944866,57.277028788506826,103.13613414879492,-0.003196623888589757,-0.011491906915042116,-0.0010106228073590569,-0.007560411260356651,-0.04918765069107605,-0.028336511224029796,0.15047472341834495,0.0052162100220328085,0.01025558504264646,6.816214630401467,6.033871889651759,2.0303706802696415,0.29619151775054536,0.31463952695737973,0.04750212744870267,25.0,25.0,25.0,25.0,25.0,25.0,24.0,15.539,0.0,0.0,1.0,1781042406780883245
1781042406882315776,0.00039736606310494983,57.27658862236138,103.13594708600034,-0.0029461877674463294,-0.011549891280528272,-0.000948453962442898,-0.002942684396247497,-0.021593741028645384,-0.013499300638973566,0.1319846889202947,0.005547405836728282,0.0064700310153620955,5.600933375219599,6.025385450688214,2.1859785335787074,0.2979356151184788,0.30717361116177233,0.05675308173927053,25.0,25.0,25.0,25.0,25.0,25.0,24.0,14.474,0.0,0.0,1.0,1781042406867284943
1781042406981922598,0.00040940886248472697,57.277232920980296,103.13631807832026,-0.0035607717426648835,-0.011592841753257793,-0.0009668068083165628,0.0001687040632405034,-0.010203941309479351,-0.007905649242501046,0.16971224285694037,0.004584334879908916,0.00559167380622282,7.275461623893591,6.035223516591548,1.9631663070629788,0.27848191043297005,0.31695096010685064,0.038859998737473665,25.0,25.0,25.0,25.0,25.0,25.0,24.0,15.908,0.0,0.0,1.0,1781042406958939369
1781042407082277433,0.00042474850196753294,57.277118648517344,103.1361455238144,-0.0032442956288993,-0.011464259313323658,-0.0010231422419840568,-0.006095633523408546,-0.05262482520537592,-0.030346546270225427,0.14471874861142078,0.006525360475135315,0.008280700857929453,6.228300201872194,6.020461489204455,2.098486698965597,0.3027409939167141,0.310515617522819,0.053681837030892736,25.0,25.0,25.0,25.0,25.0,25.0,24.0,15.014,0.0,0.0,1.0,1781042407058649047
1781042407181772274,0.0004485542901256072,57.27731661722723,103.13639609919731,-0.003517170174777972,-0.011686457427012149,-0.000979720512200471,-0.013379398100797954,-0.06943881470370984,-0.03798423210418486,0.11996935318947773,-0.0013707524876810683,0.021095176999587736,8.376879715668153,6.0597919733273455,1.880295790232796,0.2899970621640329,0.3166840771803708,0.034274510063766084,25.0,25.0,25.0,25.0,25.0,25.0,24.0,16.958,0.0,0.0,1.0,1781042407173686713
1781042407282121618,0.00040855794775860536,57.27697705895833,103.13619329359383,-0.004018502912177255,-0.011583606039462324,-0.001032895014495616,0.003729748555461248,0.027478371544168087,0.012544486530962433,-0.15167877294593143,0.0018775466090602208,-0.008113097320143162,6.882036021980008,5.837814739525329,3.5671887998616807,0.4777530504779758,0.31661902394186725,0.20275453715610584,25.0,25.0,25.0,25.0,25.0,25.0,24.0,17.284,0.0,0.0,1.0,1781042407259604087
1781042407382352830,0.00039181904331013847,57.276376410488965,103.13582058016108,-0.0034717148244807687,-0.011509788226086415,-0.0009878454214423606,-0.0054125658508965765,-0.016146682903908634,-0.004938697253002237,-0.15453715182291977,-0.012102314472111674,0.006063076328150367,4.874150363524924,5.8606931040768515,3.3422939675151953,0.4361277917195271,0.3321566883049023,0.17543749214916435,25.0,25.0,25.0,25.0,25.0,25.0,24.0,15.021,0.0,0.0,1.0,1781042407363269536
1781042407482554554,0.0004777993823310899,57.27718204452363,103.13639789818458,-0.002797419172225474,-0.011607686667846432,-0.0011256476698718134,-0.008131219473363323,-0.025431810655173536,-0.01005758611617289,0.14761065137309864,-0.003741783950597122,0.015779480450587254,8.169908441115885,6.010364064769611,1.9123557179800177,0.29780321012952865,0.31569549379106876,0.03760825701421668,25.0,25.0,25.0,25.0,25.0,25.0,24.0,16.744,0.0,0.0,1.0,1781042407477283611
1781042407582278823,0.00044704763962217354,57.27687098115528,103.13619416790654,-0.0030429985374238197,-0.011525367173173966,-0.0011242029238699598,-0.00888218645525708,-0.055371234677808925,-0.03433157140332567,0.11091417044494932,0.008471060898255358,0.011703479401675033,5.740874682038946,6.088160371945068,2.1199745855594343,0.3125120392080996,0.29225986534007603,0.06018624076266014,25.0,25.0,25.0,25.0,25.0,25.0,24.0,14.614,0.0,0.0,1.0,1781042407564769909
1781042407682006586,0.0004861253942033964,57.27685250554788,103.13613887505878,-0.003471223467898676,-0.011555484480602157,-0.0010922679011122283,0.0166799521416065,0.08076076957923554,0.051876177454177566,-0.09878437687212711,-0.002284234901266594,-0.025130616915900895,6.861233381645898,5.940023654733453,3.5926972452483397,0.46232844536038736,0.309067349044404,0.19785648405183184,25.0,25.0,25.0,25.0,25.0,25.0,24.0,17.363,0.0,0.0,1.0,1781042407672715566
1781042407785682699,0.00041684080321486303,57.27707295364162,103.13617569185648,-0.003770161562278336,-0.011541855555024252,-0.0010233043690856146,-0.005289989582938531,0.029385335920270865,0.011962533893653864,-0.21118840294541377,-0.010109195165342366,0.0048880058407958,6.553668244695387,5.815288972254974,3.4725074905740865,0.48266660139933865,0.3293328822418676,0.20240988979230057,25.0,25.0,25.0,25.0,25.0,25.0,24.0,16.856,0.0,0.0,1.0,1781042407773298865
1781042407882224617,0.000471619141555833,57.27728210941999,103.1363713882297,-0.0037104048310761775,-0.011579335802003637,-0.0010883443834664283,0.008362652105269043,0.039876611053996855,0.021218214931915894,-0.13412407926743236,0.0045168623294784375,-0.01418664068756936,7.122112067624106,5.820317893237578,3.581586979411041,0.480610719908561,0.3211591354000326,0.20551820874597387,25.0,25.0,25.0,25.0,25.0,25.0,24.0,17.531,0.0,0.0,1.0,1781042407871396696
1781042407982114695,0.0004298814970584912,57.276943155762545,103.13614723940331,-0.0040298360388218105,-0.011597276327187867,-0.0010080764895302446,-0.016760012906356793,0.031632393412609934,0.012925036191871289,-0.33297767948827767,-0.023118657906863065,0.01901107252981237,8.045289692308268,5.8113936681675495,3.633802976314368,0.5090808821209744,0.3226103598237113,0.2215181671159621,25.0,25.0,25.0,25.0,25.0,25.0,24.0,18.544,0.0,0.0,1.0,1781042407960991003
1781042408082379447,0.0003829693650765911,57.27661818034284,103.13608722089384,-0.003261817537410263,-0.011642673638868716,-0.000977177424054224,-0.004560117327853063,-0.06106149056391581,-0.02829360046481441,0.15684978215686943,0.002988922186062881,0.004777739638509515,5.784316567176501,6.042155179166804,2.149527383385186,0.30921727868923754,0.31146686131153095,0.05929305327186329,25.0,25.0,25.0,25.0,25.0,25.0,24.0,14.656,0.0,0.0,1.0,1781042408077945811
1781042408183423841,0.000498936310936747,57.27717414182806,103.13635507755828,-0.002821927110055492,-0.011611113228381374,-0.001092998876108715,-0.01329892651815131,-0.06854230380891287,-0.04048823824198376,0.1332902259520275,0.0024641381410600346,0.019076529034313755,7.909853454137417,5.9911745585101785,1.9215766825242295,0.29424561413414635,0.32152908972540334,0.03898704852088543,25.0,25.0,25.0,25.0,25.0,25.0,24.0,16.477,0.0,0.0,1.0,1781042408169572814
1781042408281700141,0.0004734507862536688,57.277038623996255,103.13631293340988,-0.00357568037430541,-0.011638633089298267,-0.0010906970579310608,0.023877404522720025,0.1069388740601239,0.06077637776023891,-0.045456731558696506,0.007235984250886635,-0.03267275647257375,6.444880755689043,5.859853027644163,3.5323040532324743,0.4549079089788486,0.315405178572938,0.19243075251304573,25.0,25.0,25.0,25.0,25.0,25.0,24.0,16.8,0.0,0.0,1.0,1781042408280147987
1781042408382108524,0.0004569822812217655,57.27695316683492,103.13625785814176,-0.0033676447873599064,-0.01161877421030364,-0.0010996755488107727,0.016248601590508383,0.05655908565751665,0.038390897571332,-0.06214478257271811,0.00350059416564953,-0.0184076475121023,5.702508674475727,5.798569921864895,3.4125872824235133,0.4479748778310788,0.33668533468467127,0.1851742738369255,25.0,25.0,25.0,25.0,25.0,25.0,24.0,15.884,0.0,0.0,1.0,1781042408375321736
1781042408482243987,0.0003986650580536808,57.27693812184375,103.13627929154028,-0.004067267607802826,-0.01162811995538289,-0.0010715922370848536,-0.0002567938519734047,0.010018883860245496,0.006551500663470892,-0.17040957523664202,-0.008600234087029158,-0.0010724380062670368,6.702166962531219,5.833142822620909,3.543558336125459,0.4649121850408699,0.3230305226983989,0.1978008481566592,25.0,25.0,25.0,25.0,25.0,25.0,24.0,17.065,0.0,0.0,1.0,1781042408465341542
1781042408582206228,0.00046477914831945943,57.27686749174643,103.13622413838516,-0.002903017106495102,-0.011544693529356944,-0.0010679208533129342,-0.003350984315005605,-0.03250369566148267,-0.016083425908523196,0.14851282842068264,0.0030437902418208847,0.006522324975385385,6.260328875326737,6.009038994994221,2.0562991418858996,0.31009522431615405,0.31752536142342663,0.05611087729839754,25.0,25.0,25.0,25.0,25.0,25.0,24.0,15.009,0.0,0.0,1.0,1781042408567962469
1781042408682145557,0.0003751112935288412,57.276599852785914,103.13601066961608,-0.0032786487500082204,-0.011601378916490242,-0.0009386949512615464,-0.0005496676615453686,-0.025621649875203115,-0.01523701493385896,0.15820698626034302,0.007444171483873163,0.00264192136411617,5.766506224877993,5.996239261369403,2.1263121725124505,0.31506445381852816,0.3201574846631625,0.06126689998932942,25.0,25.0,25.0,25.0,25.0,25.0,24.0,14.586,0.0,0.0,1.0,1781042408662941014
1781042408782356632,0.00042011176976931543,57.27657184348657,103.13617866918008,-0.0033362389424053188,-0.011669264609961497,-0.0010071896826713066,-0.0009842192084020124,-0.024965212649621423,-0.011917019400153418,0.1458026829350679,0.005139557217489029,0.003954300078629612,5.844430334365805,6.032244494661941,2.1001418791692257,0.315104814466962,0.3122284661881306,0.06071883767026788,25.0,25.0,25.0,25.0,25.0,25.0,24.0,14.665,0.0,0.0,1.0,1781042408761989033
1781042408882095884,0.0004085492584855331,57.27670793590463,103.13618591561416,-0.0034777930562848005,-0.0116255504898565,-0.001008541937755884,0.000690080403717201,-0.040072267565070256,-0.01807411764927186,0.1772038950563461,0.0035656532052048234,0.001614033408034097,6.068693831724148,6.096753708011702,2.131066681588108,0.3026154378094407,0.3138379805302875,0.05532225744536707,25.0,25.0,25.0,25.0,25.0,25.0,24.0,14.968,0.0,0.0,1.0,1781042408866731696
1781042408982299478,0.0005032980367083982,57.27684863016583,103.13654803354258,-0.002874059451687651,-0.01182517075635376,-0.001124105566541855,-0.012818152191162675,-0.08750138038958492,-0.04326034920975221,0.1313519952250813,0.0015389851016925898,0.01509448417627596,6.872664099118892,6.024782983470638,2.023208593832243,0.30551064164671493,0.3151039176645381,0.05010274254832823,25.0,25.0,25.0,25.0,25.0,25.0,24.0,15.591,0.0,0.0,1.0,1781042408960358384
1781042409082746472,0.0004515495240987218,57.27663169988443,103.1364784766763,-0.003348575244907322,-0.011843046819346292,-0.0010945347404788717,-0.004661733225281571,-0.05253889063600507,-0.024260216256503823,0.14707989786327602,0.0015802396268680106,0.008304040190594705,6.237031838691278,6.030563258802788,2.0683334540748453,0.308048617027706,0.3167334383498582,0.05570487506489638,25.0,25.0,25.0,25.0,25.0,25.0,24.0,15.016,0.0,0.0,1.0,1781042409052671731
1781042409185680013,0.0005009194680783387,57.27702813918134,103.13667738260028,-0.003448907600402266,-0.01175838010566781,-0.0012014447992200726,0.010360490759784464,0.03421866731794861,0.022369491901613463,-0.1033851870615186,0.0006029730614028034,-0.014898715971672732,6.382344906327925,5.869512805597403,3.5334881379022782,0.448549491693621,0.31986502780242754,0.19010159578818733,25.0,25.0,25.0,25.0,25.0,25.0,24.0,16.744,0.0,0.0,1.0,1781042409178712801
1781042409282717351,0.0004703806113775226,57.276342316706426,103.13643398894912,-0.0028935289512564523,-0.011860034973881285,-0.0011129343648864662,-0.001832329293374105,-0.03169341208303058,-0.021199795674270192,0.12327517692248988,0.009294928351195298,0.004993215014470156,4.946574864787891,6.027640849739727,2.171067080329442,0.3314890539967253,0.30948395174046456,0.07230581516647246,25.0,25.0,25.0,25.0,25.0,25.0,24.0,13.859,0.0,0.0,1.0,1781042409274086606
1781042409382659257,0.00046478051517260713,57.277157008869615,103.13685768226124,-0.003286023720526987,-0.011881717124187284,-0.0011501433762515947,-0.01278188049197724,-0.05152582552461518,-0.02459799809783161,0.14678508311344268,-0.0017894630173694588,0.019085946591001157,8.28642188355809,6.015321096937481,1.897435367783717,0.29768239820590997,0.3208819139295723,0.03717959452144014,25.0,25.0,25.0,25.0,25.0,25.0,24.0,16.855,0.0,0.0,1.0,1781042409374436469
1781042409482236621,0.0004801372392989635,57.27643656177987,103.13652486228392,-0.00295149234986348,-0.011847274008732802,-0.0011420743100695643,-0.004041545629788183,-0.037019823709184566,-0.01751083465996383,0.13293475670218094,0.001520158545183328,0.008876555395336418,5.973852758774019,6.031657603944889,2.0708814630328027,0.31895628855481495,0.3181009672615593,0.06118158482365249,25.0,25.0,25.0,25.0,25.0,25.0,24.0,14.775,0.0,0.0,1.0,1781042409474720294
1781042409582130633,0.0005512865487227683,57.27704742693413,103.13671202295107,-0.0033595606259664,-0.011753139322183246,-0.0012013880731190898,-0.009299999964661106,0.030738057200154534,0.011470306457785313,-0.26596262194315073,-0.014695879134479362,0.009235284073598856,7.360406790120666,5.833368621364812,3.5820201483826657,0.49378734310626554,0.32121668861220143,0.21169381950102195,25.0,25.0,25.0,25.0,25.0,25.0,24.0,17.802,0.0,0.0,1.0,1781042409561182426
1781042409682378401,0.0005117205089882836,57.277096574823176,103.1368001148213,-0.003033309185118922,-0.011859100138424264,-0.001166818308353838,-0.010458224478487745,-0.05917173633747776,-0.031546167571864236,0.12701848718563397,0.00233912188978155,0.014251913560087896,6.6808632225992195,6.010413707810174,1.9839085675610837,0.31423736064937585,0.31794351886254457,0.05435268550343037,25.0,25.0,25.0,25.0,25.0,25.0,24.0,15.362,0.0,0.0,1.0,1781042409678072343
1781042409783101805,0.000490044576097406,57.27676404644818,103.13661023436768,-0.003049060699848708,-0.01183124770134756,-0.001149897936410976,-0.011604365192841404,-0.07810638658506076,-0.04006913837369322,0.13587737472760728,0.000767830346759831,0.014985840870087306,6.9407797719285895,6.05046837649546,1.9772011800881797,0.30414521537582,0.32154515785562443,0.04948685258022595,25.0,25.0,25.0,25.0,25.0,25.0,24.0,15.644,0.0,0.0,1.0,1781042409771766720
1781042409882178620,0.0004814015409805606,57.27685613045614,103.13662498794552,-0.003074775168318454,-0.01185750335301904,-0.001107051120439762,-0.0064904647822260665,-0.039624656943365706,-0.018538523350641968,0.1544732949038009,0.0008540174472935624,0.010399246395992007,6.9140840637371825,6.033774122195026,2.014180684277638,0.2970486181493367,0.3216842766430901,0.04739788632307587,25.0,25.0,25.0,25.0,25.0,25.0,24.0,15.628,0.0,0.0,1.0,1781042409861015940
1781042409982387034,0.0005350942235712309,57.27658564458682,103.13642236621725,-0.0031382107934957992,-0.011733919350641149,-0.0011801468943423296,0.006915783495154151,0.0623806877679535,0.03233293162528319,-0.11692567750396622,-0.005602096256739386,-0.01332147143027935,5.662520480430286,5.971869759433303,3.481647384744711,0.44737703970100295,0.30575058352287077,0.18464005950358667,25.0,25.0,25.0,25.0,25.0,25.0,24.0,16.054,0.0,0.0,1.0,1781042409975887984
1781042410081799325,0.0005352864382585821,57.277023631459336,103.136780038768,-0.0035871797829902597,-0.011894835783022927,-0.0012263763035742143,0.007339570932193622,0.03232534024412741,0.022455088173437807,-0.1381076242048234,-0.008665576041281375,-0.014496309945440553,7.1142460038268585,5.830166093108095,3.6316512103349177,0.454135066933026,0.3158507341920396,0.19712748483271492,25.0,25.0,25.0,25.0,25.0,25.0,24.0,17.543,0.0,0.0,1.0,1781042410072930847
1781042410182069249,0.0005110899470472554,57.27683493267347,103.13659397737143,-0.003511226989712865,-0.011840498615572431,-0.0011750859818696654,-0.003017501341016625,0.03334020309642636,0.010585964959357444,-0.2033201429840838,-0.0036350664031816983,6.872183352917769e-6,6.96706166937114,5.810448616755685,3.5457031138012485,0.4832766742551842,0.3378051526174803,0.2058393903159847,25.0,25.0,25.0,25.0,25.0,25.0,24.0,17.35,0.0,0.0,1.0,1781042410163946919
1781042410282217223,0.0005079574770622796,57.27698589960957,103.13673079637118,-0.0031120371688961104,-0.011845018392687864,-0.0011869595307890956,-0.013775192141145838,-0.06431070717453022,-0.0302803037987138,0.12697991020942145,-0.0033235718806552436,0.019319444859644777,7.714660639723939,6.0497544297022,1.9148649352432616,0.30100677402199094,0.3209629362198993,0.04273126228914314,25.0,25.0,25.0,25.0,25.0,25.0,24.0,16.344,0.0,0.0,1.0,1781042410278836509
1781042410382386635,0.0004931179192829412,57.27692847574143,103.13653666667602,-0.002982730769331513,-0.011773631171970975,-0.001104568634310192,-0.0037819957720543382,-0.016211009779075563,-0.010286831396754927,0.1470931263105223,0.0022289822965711223,0.009612789884462132,7.366923133966363,6.021644163720476,1.9403864259012888,0.2885229673388478,0.3213318266057911,0.04142810783961912,25.0,25.0,25.0,25.0,25.0,25.0,24.0,15.98,0.0,0.0,1.0,1781042410368332757
1781042410485685207,0.0004724895894907837,57.2762098213413,103.1361964352711,-0.0030940660440378367,-0.011702427618821986,-0.0011113027278990403,0.0011885822167143954,0.02211266960000489,0.005932010590479332,-0.10449556410099152,-0.0007557247571310039,-0.003089711610696893,4.380081361119258,5.8538191341036185,3.3412328329760297,0.4252420550692152,0.3174010617197461,0.16820786475370547,25.0,25.0,25.0,25.0,25.0,25.0,24.0,14.486,0.0,0.0,1.0,1781042410476287813
1781042410582195539,0.0004991170384153509,57.2770718822588,103.1367733726718,-0.003960754223841606,-0.011904559518131446,-0.0011342245137933788,0.004550661434287948,0.011927507301585203,0.010802218090308176,-0.14691919435466128,-0.005812138343398612,-0.012222249592182825,7.113444870268883,5.825553721478478,3.60777797248069,0.46078796067075223,0.3203489737351058,0.199292860123713,25.0,25.0,25.0,25.0,25.0,25.0,24.0,17.527,0.0,0.0,1.0,1781042410563774797
1781042410682393045,0.0004905235067664205,57.27660711188451,103.1365937622447,-0.0030010833516484693,-0.011906151921083094,-0.0011859931269817196,-0.005107459180671508,-0.030223156228724103,-0.017614552048622032,0.14002975905704212,0.0033263531560282816,0.010687872950579028,7.071782330394152,6.049003461426285,1.9467308968484245,0.30087494893757644,0.31391305589243773,0.04738292844148532,25.0,25.0,25.0,25.0,25.0,25.0,24.0,15.73,0.0,0.0,1.0,1781042410680157003
1781042410782601229,0.00048674241801393566,57.27710737547966,103.13675482977628,-0.0033701314145672284,-0.011868046052304376,-0.001083372781282,-0.006681796539860355,-0.031458657553571,-0.014172482705716444,0.14172772678018694,-0.0008958443626416485,0.0129457880660713,7.752866689448268,6.027610534674185,1.895208007798516,0.2928762898438281,0.3326097460089471,0.040274470092635566,25.0,25.0,25.0,25.0,25.0,25.0,24.0,16.341,0.0,0.0,1.0,1781042410769890442
1781042410882181796,0.0005719344651967814,57.2769861048173,103.13679974772744,-0.003320922480390586,-0.011908435873860215,-0.0012447778564116784,0.028836720190837373,0.11732042863205525,0.06073562828073141,-0.025118995943081084,0.02176449370460621,-0.04289543323789149,7.463173798574112,5.77683185330015,3.610571200176124,0.46137373501578294,0.32101507845316,0.20208783368965336,25.0,25.0,25.0,25.0,25.0,25.0,24.0,17.835,0.0,0.0,1.0,1781042410881995397
1781042410981826532,0.0005526179764692728,57.276838041774205,103.13669588467536,-0.0033282486764112033,-0.011867820938110082,-0.0012765095690984512,0.004469182827261076,0.02299919100340138,0.016986589640524054,-0.1454132391933758,-0.009586593411237502,-0.00907157231652108,6.700474760463931,5.82865562482582,3.5926896278011013,0.4515711281459238,0.32381379012272454,0.19347363700251644,25.0,25.0,25.0,25.0,25.0,25.0,24.0,17.091,0.0,0.0,1.0,1781042410973372612
1781042411082391014,0.0005449255318919597,57.2772738615807,103.13679294995602,-0.0035446665200874034,-0.011762617497790067,-0.001200394482486624,0.014700818785758882,0.07937694800736281,0.03983800527403149,-0.1146318673083914,0.008419031577910914,-0.023647599842020615,7.586335654275665,5.822223785248479,3.633839605950682,0.4837503104706669,0.31849507903486746,0.2099858007073171,25.0,25.0,25.0,25.0,25.0,25.0,24.0,18.055,0.0,0.0,1.0,1781042411053173540
1781042411185723299,0.00046036432231485335,57.27679910903164,103.13658267801762,-0.0031899463061429933,-0.011825979184186567,-0.0011048950292682745,0.003329545972798222,0.01017426630787074,0.009671173464332257,0.17014192295330896,0.0015494323215407718,0.0014752010106300088,6.518411684363768,6.1135064095709435,2.0433892658548056,0.3076930585949244,0.3054452462564227,0.053815295919527,25.0,25.0,25.0,25.0,25.0,25.0,24.0,15.342,0.0,0.0,1.0,1781042411172223799
1781042411282387548,0.00046974981140329714,57.27685911230015,103.13656647510597,-0.0029634018149445876,-0.011737935711157232,-0.0011268483107776518,-0.006942607997209685,-0.051246811493849354,-0.025556283467793046,0.1419691728366516,0.0027395516071901747,0.009302118291210752,6.298210835533188,6.0198579789956534,2.059967554733437,0.31346823429777726,0.31838234612969796,0.05669168535465923,25.0,25.0,25.0,25.0,25.0,25.0,24.0,15.067,0.0,0.0,1.0,1781042411266722174
1781042411382610826,0.0004543726243654048,57.276849095801,103.1365790308868,-0.003942532505865276,-0.011843020543172558,-0.0011001068777087037,-0.0024350633769102447,0.0001274625179496874,0.003635871914350641,-0.1818325079087366,-0.007478119513073156,-0.002194121125995112,6.9938863300734075,5.827840702134511,3.596959774823659,0.4671308603010031,0.32672366343178355,0.20051666157446688,25.0,25.0,25.0,25.0,25.0,25.0,24.0,17.413,0.0,0.0,1.0,1781042411375469597
1781042411482298224,0.0005399957662302365,57.27726597304224,103.13688415743935,-0.003758958363479093,-0.011925171697781333,-0.0011907448449933352,0.014684485455639853,0.09869337655393969,0.05190610986761406,-0.14797104252458193,0.0006919117237116729,-0.02335881897839085,8.512143962691823,5.80056563941079,3.711273287026406,0.4739471965855306,0.3220841795773799,0.2141411624896108,25.0,25.0,25.0,25.0,25.0,25.0,24.0,19.034,0.0,0.0,1.0,1781042411465552829
1781042411582260651,0.00043585506921715145,57.276240891763834,103.13635465670822,-0.003482916712212461,-0.011918320804693228,-0.0010719482901647202,-0.0040191676656553274,0.010578223272713802,0.007731958508041569,-0.1753101117562492,-0.015524008152373585,0.0046207296064661035,5.455993062922854,5.843225539460333,3.4310515549221425,0.43751109755720285,0.32658401142051474,0.1798301677197656,25.0,25.0,25.0,25.0,25.0,25.0,24.0,15.674,0.0,0.0,1.0,1781042411569639678
1781042411682153724,0.0005180716921484724,57.27656315067183,103.13647331873293,-0.003424632057694684,-0.01179146002924191,-0.0012204399740412255,0.008400542409811794,0.028973874366651418,0.015668226585022784,-0.10248169203282192,0.0053035499880922845,-0.016123534721250662,6.437450903124237,5.850558694576605,3.5639939951950543,0.4540265256659092,0.3216889999070377,0.19227270088381143,25.0,25.0,25.0,25.0,25.0,25.0,24.0,16.82,0.0,0.0,1.0,1781042411664461068
1781042411785643733,0.0005932593975280159,57.27744842796226,103.13699448863298,-0.003610336261157744,-0.011873648438555935,-0.0012768338982297777,0.021917051413605313,0.0941219067118466,0.04897673031669387,-0.0739274995886055,0.013889920897050772,-0.03480129049278642,8.02066932741767,5.772262541498997,3.6801615942344466,0.462055470577758,0.32374094689314237,0.20636748615551395,25.0,25.0,25.0,25.0,25.0,25.0,24.0,18.465,0.0,0.0,1.0,1781042411767772396
1781042411885671907,0.00048198958815978547,57.27620669831002,103.13651604020372,-0.0033618198120306153,-0.01199011476554285,-0.001216452887447816,-0.00022457627835584975,0.01492474133987072,0.010264316962559002,-0.15615018079264964,-0.011970202203673012,0.0010315161229454315,5.9575905635834925,5.847933684134553,3.523165203622696,0.4305146912001504,0.31903963008032193,0.18129069057393263,25.0,25.0,25.0,25.0,25.0,25.0,24.0,16.26,0.0,0.0,1.0,1781042411862873479
1781042411982571805,0.00048087358566993664,57.27646551629024,103.136397680508,-0.0027575081534915156,-0.011810423841848003,-0.0011154097312959506,-0.0029978146770763907,-0.02810626228283951,-0.011046424947200269,0.12843258523576093,0.0009994832899279545,0.005503162773192897,5.924084142776753,6.033695327688642,2.0740831232631853,0.3105892772548811,0.31884491257403,0.058757423252631856,25.0,25.0,25.0,25.0,25.0,25.0,24.0,14.72,0.0,0.0,1.0,1781042411979968799
1781042412082552095,0.00043461763853725014,57.27680187416477,103.13654936081102,-0.0035275988703556546,-0.011854114393792818,-0.0010506288443408167,-0.005432330156902492,-0.038555588274430355,-0.015110784670593298,0.15210623154597372,-0.0016716100470551389,0.010574211332995452,7.1355989072688235,6.024147297546214,1.9332125027690183,0.30942480181875415,0.3285096156036087,0.05022411226075746,25.0,25.0,25.0,25.0,25.0,25.0,24.0,15.781,0.0,0.0,1.0,1781042412064443815
1781042412182417097,0.0005320666799259991,57.27674261877938,103.13664479351462,-0.0030745838842616184,-0.01184097356678312,-0.0012354322942037894,0.01802776095677829,0.07836094350157442,0.04561628551682171,-0.05608881234993691,0.0043899000500869385,-0.020095429299723005,5.835423508372453,5.800534932111765,3.451323712860057,0.4450681520317678,0.3324476707070153,0.18528204756537833,25.0,25.0,25.0,25.0,25.0,25.0,24.0,16.05,0.0,0.0,1.0,1781042412175974871
1781042412282015144,0.000509446758930254,57.27731496010045,103.13681339009236,-0.004029812211713825,-0.011900790705720893,-0.0011277357295261588,0.009801771176838656,0.08479491534606164,0.03648543816450071,-0.15454119881924053,0.006940710105244236,-0.016606233635523094,8.080612545930284,5.769531703307492,3.681510820808684,0.4471773548566859,0.3242384983599744,0.20242420430171337,25.0,25.0,25.0,25.0,25.0,25.0,24.0,18.505,0.0,0.0,1.0,1781042412267547574
1781042412382228484,0.0004265579578580443,57.276121482994824,103.136256543017,-0.003465646696158758,-0.011840950321198796,-0.001128853801472534,0.007860052358873281,0.023998127817369975,0.01376692151664865,-0.08844070671217767,0.003738680088345785,-0.009087403931775656,5.540248973669966,5.840455300947889,3.467074600062954,0.42933848055679497,0.3185694154666543,0.1777446158208466,25.0,25.0,25.0,25.0,25.0,25.0,24.0,15.773,0.0,0.0,1.0,1781042412361907539
1781042412482106145,0.0004137277376123979,57.27610738672691,103.13605224427944,-0.0028800187072861665,-0.011715768753506809,-0.0010403674418812767,0.001529343406390366,-0.0035386594354104837,0.003943755343699256,0.1279670365381655,-0.003009482439754791,-0.00007742777250891512,4.846168558019523,6.090814600900478,2.2439490237722697,0.32943540098403484,0.30242541127896927,0.07243957475945172,25.0,25.0,25.0,25.0,25.0,25.0,24.0,13.885,0.0,0.0,1.0,1781042412470683506
1781042412582214552,0.0004336171004998557,57.276996214431854,103.13657293912428,-0.0033062500791711264,-0.011890593129967634,-0.0010239457836288216,-0.003818446718850488,-0.022688517726211874,-0.005159054729956364,0.1555554663039233,-0.0049096868208907555,0.009341917268851202,7.815513071693933,6.0586405083362225,1.9240872954892876,0.2890070340362378,0.3245284264701109,0.03873314570020687,25.0,25.0,25.0,25.0,25.0,25.0,24.0,16.451,0.0,0.0,1.0,1781042412560498311
1781042412682293016,0.00048182629995843,57.27673663442025,103.13643668962972,-0.003474084344615398,-0.011764415131951703,-0.0012023091277689414,-0.010067356635151068,-0.013437739924383768,-0.01004457719296391,-0.24108190045543668,-0.014235676589504429,0.0064853578835370115,7.422476050992248,5.835571064897861,3.633331704239051,0.4667291192421289,0.3314256886358693,0.2039146420745291,25.0,25.0,25.0,25.0,25.0,25.0,24.0,17.893,0.0,0.0,1.0,1781042412677476552
1781042412783245690,0.0005028965843546437,57.27683173161344,103.1363569395833,-0.003212919319645489,-0.011643989930244913,-0.0011641445609294051,-0.010921623874370451,0.024801738009918833,0.00939856850555252,-0.262724480862668,-0.017636604880892796,0.009004420274846478,7.09369360384405,5.809036415289866,3.553158373266086,0.4859977479253781,0.3263960067151642,0.2072902447041488,25.0,25.0,25.0,25.0,25.0,25.0,24.0,17.476,0.0,0.0,1.0,1781042412770690945
1781042412882640600,0.0004428771243883998,57.27661001454558,103.13637932034734,-0.0034996735632247173,-0.011818788628557009,-0.0010737307717122511,-0.005288246086697599,0.020070189105382608,0.008487058658815029,-0.197201962592012,-0.01068121048581358,0.0038597584167160497,6.241023005487325,5.821950651673558,3.481182535459158,0.4650061818764848,0.32692227152679226,0.19447174446821452,25.0,25.0,25.0,25.0,25.0,25.0,24.0,16.531,0.0,0.0,1.0,1781042412872853424
1781042412984067663,0.0004734835509617173,57.276743685930896,103.13650958223852,-0.00280566248774893,-0.011792347991833228,-0.001132258994046549,-0.004405281454778612,-0.019888973571266694,-0.015401464314599983,0.15261471101779092,0.007619531119394942,0.009144915815235627,6.6526375484715565,6.059374932206419,2.0653506803072483,0.29875189496516924,0.3055038471835387,0.04932682744478953,25.0,25.0,25.0,25.0,25.0,25.0,24.0,15.431,0.0,0.0,1.0,1781042412977861744
1781042413085675748,0.0004410241795147322,57.27619456795342,103.13627186277148,-0.002731388331976951,-0.011782869757105425,-0.0011227621477845845,-0.004696393172384044,-0.05394403412676545,-0.02641710284445727,0.138645167756606,0.002714152801198425,0.007861938160315858,5.518779560316086,6.00552932353779,2.1431609614011555,0.32979343607952766,0.31401825584919296,0.06753957620925538,25.0,25.0,25.0,25.0,25.0,25.0,24.0,14.379,0.0,0.0,1.0,1781042413077907669
1781042413183584633,0.00048010870847202733,57.276606894873595,103.13651790177316,-0.0029972214804025307,-0.011879139948098073,-0.001123341367708016,-0.0017255959114106565,-0.008706650016127235,-0.010429360719511949,0.12178303248508145,0.007975277739295477,0.009227648914529206,6.637649565662356,6.0323234661731915,1.9808061558654049,0.30310494685776,0.29926805068976,0.050877276652259065,25.0,25.0,25.0,25.0,25.0,25.0,24.0,15.304,0.0,0.0,1.0,1781042413166624907
1781042413282560084,0.0005110808585804125,57.276730239281974,103.13661725405134,-0.0028837868384140658,-0.011896125099001098,-0.0011596649638534596,-0.010446363727650575,-0.05099734991179005,-0.02479057315475974,0.11181274954542454,-0.004166192955781303,0.017425715085731815,7.596063604475193,6.040693969556722,1.9284015509100536,0.30289074718358205,0.3234618643577078,0.04418143178800914,25.0,25.0,25.0,25.0,25.0,25.0,24.0,16.236,0.0,0.0,1.0,1781042413259064238
1781042413382307118,0.0004780863729748527,57.27655040857953,103.13638177364255,-0.003205887196722634,-0.011767641089647786,-0.0011948956330787698,-0.0028172010106707487,0.007435856950246335,-0.0017599180653866476,-0.17698424092456624,-0.0008096274582686357,-0.00045845268005108015,6.636852863219955,5.84975443307334,3.556939507180029,0.4655811248753587,0.3203089403188379,0.1973698888835402,25.0,25.0,25.0,25.0,25.0,25.0,24.0,17.027,0.0,0.0,1.0,1781042413380552622
1781042413481711746,0.00041954480580722487,57.276306372568655,103.1361712695142,-0.0035611903984605125,-0.011777771657460957,-0.001060772384887094,-0.007126472015222197,0.01197198574173191,0.004071693273006112,-0.19983239503660896,-0.016313820772508664,0.006209784481588047,5.821352070066201,5.8258241427343105,3.4718699796260473,0.4533325827230068,0.3256220558492218,0.1875033560411256,25.0,25.0,25.0,25.0,25.0,25.0,24.0,16.086,0.0,0.0,1.0,1781042413480408339
1781042413585472571,0.0005102545185508713,57.27734100393724,103.13666233470964,-0.0031934536683363127,-0.011637956175161545,-0.001238369201405366,0.015856700365784508,0.03853278017464757,0.02502530219593586,-0.05914545755790038,0.01176081228297813,-0.020834925814733868,6.426817020919947,5.820214999290598,3.54060297726944,0.44316763135961423,0.3195440563513669,0.18858049214520964,25.0,25.0,25.0,25.0,25.0,25.0,24.0,16.739,0.0,0.0,1.0,1781042413582169271
1781042413682304320,0.0005239202828879279,57.27730447645643,103.13661049236626,-0.0033567986089438934,-0.011700448597807249,-0.001167581201467436,0.02068091180750596,0.087096161525359,0.04528317340585702,-0.0727399110631921,0.016933688959078083,-0.03176008932590192,7.49983511863714,5.812012898545515,3.582479136933734,0.47462812664454407,0.3221869079071378,0.20648009484688531,25.0,25.0,25.0,25.0,25.0,25.0,24.0,17.898,0.0,0.0,1.0,1781042413668649767
1781042413782308164,0.0004170617807937753,57.27619364810265,103.1361241876134,-0.0027454677692629087,-0.011724966438138612,-0.0010717544818322246,-0.001463158959044502,-0.04754615673100142,-0.02423613341735228,0.144604487203333,0.0033623123567400404,0.005859228546687876,5.145029524575807,5.997218843468325,2.1723658243935233,0.3405414329384374,0.31305412516128134,0.07391611884781718,25.0,25.0,25.0,25.0,25.0,25.0,24.0,14.042,0.0,0.0,1.0,1781042413774370708
1781042413882369642,0.0004025043231750927,57.276700047316986,103.13642578983143,-0.00333212452407966,-0.011826915505199945,-0.001073455915249743,-0.012060999527366788,-0.06447012970898441,-0.03327070505069174,0.14260693036351843,0.0028606233092275416,0.014461444359830912,7.364503353293819,6.008855587267758,1.9282748122760351,0.32731961932375,0.3163739582446222,0.05331651542781264,25.0,25.0,25.0,25.0,25.0,25.0,24.0,15.999,0.0,0.0,1.0,1781042413866172034
1781042413982697630,0.0005589206065754712,57.27703365368092,103.1366606781152,-0.002890066237160843,-0.011727904575338625,-0.0012759849286233034,0.017470692213104454,0.045785387548949806,0.027158149357535407,-0.06355937718911304,0.01282309880248042,-0.026445539601560604,6.713078496553555,5.854205339304698,3.567261829584728,0.44443776591041606,0.31842947946257033,0.19105312813607792,25.0,25.0,25.0,25.0,25.0,25.0,24.0,17.088,0.0,0.0,1.0,1781042413972839138
1781042414082104634,0.0004973750082793871,57.27664237317047,103.13635101793705,-0.002815967905718984,-0.011684912889984567,-0.001167268057349868,0.016402706010843354,0.06898549113450463,0.04066407485759492,-0.04512875269272595,0.0013743591171625155,-0.022214081747852277,4.90466666691891,5.9178270239016175,3.4513501400660953,0.41616518926018775,0.3101144809076239,0.16884305860519552,25.0,25.0,25.0,25.0,25.0,25.0,24.0,15.169,0.0,0.0,1.0,1781042414068953504
1781042414184307060,0.0005085695409924378,57.27682855980947,103.13654458049808,-0.003167037518219699,-0.011807886140061731,-0.0011842121631957384,0.025269235704000637,0.11088781814100952,0.05823332407768882,-0.031013280759071383,0.015035147126496718,-0.034597002063241206,6.411456490076678,5.811489608333503,3.532548152603865,0.45861323203306326,0.3139571147789427,0.19320534848318963,25.0,25.0,25.0,25.0,25.0,25.0,24.0,16.721,0.0,0.0,1.0,1781042414161405023
1781042414282711719,0.0004669698787008907,57.276369226849155,103.13643782368575,-0.002697266669571296,-0.011808426673608804,-0.0011590053480533347,-0.001813027730071149,-0.03371692395246941,-0.02150393948970569,0.15093239254753163,0.006693006656686401,0.008104701773610789,5.94120746309424,5.99650272482629,2.0654570781289023,0.33148454531227334,0.3180813465820492,0.06528764120318667,25.0,25.0,25.0,25.0,25.0,25.0,24.0,14.718,0.0,0.0,1.0,1781042414275001507
1781042414382616514,0.0005220288032028162,57.276497521996966,103.13628273239924,-0.002077936957715466,-0.011616302414816523,-0.001166530550885672,-0.0029425900236018637,-0.01634463484219184,-0.01752269889879187,0.13314686212873203,0.008625928893860295,0.008372464451667644,5.795932918867177,5.985658931942136,2.104157678376437,0.3206417655373411,0.31460771651822556,0.062457384538232165,25.0,25.0,25.0,25.0,25.0,25.0,24.0,14.583,0.0,0.0,1.0,1781042414365474369
1781042414482319744,0.00036320275930330927,57.27621448219648,103.13605760572324,-0.004104243112518603,-0.011813468413507706,-0.0009748751193925752,-0.010625239351331106,0.018297052428016217,0.013195706492001826,-0.2510279667557296,-0.021748105767171032,0.010497820071940564,6.97205339233446,5.825177923934903,3.5768559529160218,0.47669219811682534,0.3242328772651632,0.20329391371538497,25.0,25.0,25.0,25.0,25.0,25.0,24.0,17.378,0.0,0.0,1.0,1781042414476153954
1781042414585677210,0.0005508494553963936,57.27743419686061,103.1367964169819,-0.0031938114835223766,-0.011751435188178757,-0.0012392811056174602,0.017342124566386282,0.07745419218340528,0.04391568016908127,-0.09582637158987796,0.0047799071784396085,-0.02747653953474493,7.43678520591461,5.800443921671989,3.6044084661582305,0.4738491965650815,0.3216519072911312,0.2058709928036442,25.0,25.0,25.0,25.0,25.0,25.0,24.0,17.843,0.0,0.0,1.0,1781042414575435212
1781042414682574608,0.0004994157748431174,57.27695558212648,103.13657410738472,-0.003279424638320348,-0.011744369352395787,-0.001225517492764224,0.01081981487029519,0.036358672188678824,0.019154815974646203,-0.10406488811790134,0.006029071662024072,-0.019557183562928383,6.982447876574747,5.841018737576617,3.607405728475362,0.45019711704316334,0.3155287227949323,0.19476521955089793,25.0,25.0,25.0,25.0,25.0,25.0,24.0,17.391,0.0,0.0,1.0,1781042414673848803
1781042414782462535,0.0003889472772642011,57.27634849321785,103.13621479509564,-0.003782765381659747,-0.011769097140514174,-0.0010414015581380449,-0.0005311357322169354,0.012094631193969738,0.007900416086140389,-0.17078369810862465,-0.002790040315480879,-0.002662042709390517,6.7883710767907255,5.849042466849724,3.5537250963214455,0.47117968644024094,0.3139906131062383,0.20008977006585765,25.0,25.0,25.0,25.0,25.0,25.0,24.0,17.176,0.0,0.0,1.0,1781042414764753570
1781042414881841444,0.0005478261224565399,57.277246658150695,103.1368041743621,-0.0027866586631859333,-0.011762058475072725,-0.0013139583470883592,0.016365219458815777,0.07205667568444826,0.042789027310246974,-0.10060689370731296,-0.0013677430998160903,-0.024006637909931933,7.084608117127549,5.837395812821785,3.5794281342791887,0.4608997541894578,0.32280922993032374,0.19919084906928425,25.0,25.0,25.0,25.0,25.0,25.0,24.0,17.484,0.0,0.0,1.0,1781042414858381448
1781042414982449533,0.000466022942223699,57.27661882127232,103.13639708805486,-0.0026775682756659774,-0.011699831037894223,-0.001203461868519408,-0.00545771293342165,-0.010175615308352868,-0.011282534943756571,0.13684030722794024,0.005352271187071394,0.012119215551997816,6.928436787600073,6.027323119216797,1.969558520347708,0.30502750179810195,0.3148761002424806,0.049705590648469015,25.0,25.0,25.0,25.0,25.0,25.0,24.0,15.595,0.0,0.0,1.0,1781042414974289258
1781042415082153609,0.0005551559273051344,57.27650198941136,103.1362542521128,-0.001895993676316068,-0.011575241841255728,-0.001226079902272374,0.003870553666075552,0.012174626545307597,0.005471394146555827,0.13424336731277065,0.005653579492032703,-0.0005082163366101998,5.552477916296307,6.0420669263293725,2.1285594560303185,0.3138545319641302,0.30666740274288173,0.062057648562072576,25.0,25.0,25.0,25.0,25.0,25.0,24.0,14.406,0.0,0.0,1.0,1781042415065578569
1781042415183105669,0.0004425444451204502,57.27655887650011,103.13646058130205,-0.003452953288029803,-0.011835165496212038,-0.001115239533969157,-0.0018043346196631772,-0.019489698675389733,-0.010495526980820454,-0.14918345417560247,-0.0013410960129188448,-0.0028740526988605703,6.2780138879171785,5.861793996082192,3.5483071971128974,0.44401762016478713,0.32040649068625415,0.1878666102726924,25.0,25.0,25.0,25.0,25.0,25.0,24.0,16.64,0.0,0.0,1.0,1781042415177743070
1781042415282275488,0.0004736042496410593,57.27696626017984,103.13653081551249,-0.003458773515241048,-0.011748608776561038,-0.0011856499787210558,-0.01034768796132369,-0.009447425251732134,-0.009510230125307127,-0.24881458326043665,-0.009234745558792787,0.004172785335622678,7.853707054757464,5.82865013737722,3.663732109418782,0.480115547576112,0.33489961381588806,0.21135989414714995,25.0,25.0,25.0,25.0,25.0,25.0,24.0,18.372,0.0,0.0,1.0,1781042415262472291
1781042415382499968,0.0004897247052839467,57.276858258067406,103.13652548101078,-0.0026954409196632534,-0.01175933047290757,-0.0011603093536499377,-0.009066440689491938,-0.03797820947981113,-0.014860384687866796,0.11370323061556928,-0.004811927109610943,0.015649417853026548,6.92654780819597,6.107790488693405,2.014544872757829,0.3041792639127271,0.3146760282401453,0.04952526324223769,25.0,25.0,25.0,25.0,25.0,25.0,24.0,15.717,0.0,0.0,1.0,1781042415369601304
1781042415482309261,0.00045315579545143753,57.276596767471815,103.13642269632516,-0.002553429127296992,-0.011747087591406104,-0.001161304441954262,-0.002988826421602742,-0.03221369531374568,-0.017614079759827896,0.1404841912683874,0.00311826418965753,0.007840980258478063,5.950855254780792,6.014792130247502,2.0776073433273963,0.3230310764457741,0.3154279575380882,0.06246845658771542,25.0,25.0,25.0,25.0,25.0,25.0,24.0,14.744,0.0,0.0,1.0,1781042415461948518
1781042415582193810,0.000520924453267307,57.27685041375872,103.13653499497391,-0.0030271174099440637,-0.011749747393122588,-0.0012098031502976825,0.0002597735024648419,0.04986951004487102,0.02170851668582365,-0.19890405612695763,-0.002730442008151964,-0.005021109491752113,7.285549257408519,5.805710207270467,3.5861387249072343,0.49037841147985206,0.33623991489424476,0.21040093398907697,25.0,25.0,25.0,25.0,25.0,25.0,24.0,17.714,0.0,0.0,1.0,1781042415575453751
1781042415682072118,0.0005956002230535,57.2765818375992,103.1365179644988,-0.0024758391839373776,-0.011747126905826476,-0.0013163849989171286,0.00695760152043356,0.03649891820739175,0.007909872329475277,-0.09373398485653182,0.011706290698558688,-0.014157402490826386,5.362180477401798,5.8445371427854145,3.4565756302832424,0.4313393867189488,0.3124686073951975,0.17712296035994807,25.0,25.0,25.0,25.0,25.0,25.0,24.0,15.584,0.0,0.0,1.0,1781042415664572438
1781042415785732843,0.0004594658130829599,57.27659130172322,103.13648860966028,-0.0025866231139045565,-0.011832587383043935,-0.0011308517396893386,-0.004485829223991193,-0.020241783592084776,-0.00994760285058213,0.13961880813514194,0.0001570429063340443,0.009224866591349896,6.696692851491294,6.008275375940402,1.9968507307929289,0.3057590536692278,0.3241283609307487,0.05165967984592073,25.0,25.0,25.0,25.0,25.0,25.0,24.0,15.383,0.0,0.0,1.0,1781042415776863791
1781042415881946688,0.0004809726689342055,57.27664432158305,103.13642283844024,-0.002307413938590168,-0.011711783227716785,-0.0011836683127269328,-0.005663958390540478,-0.04037244880509068,-0.024825846475147864,0.14230819548621657,0.003702104264737739,0.012726828286464192,6.610958316380237,5.98916894144637,2.007635816897104,0.31695660815537074,0.31856539314565446,0.05579269139099308,25.0,25.0,25.0,25.0,25.0,25.0,24.0,15.299,0.0,0.0,1.0,1781042415870995945
1781042415982327657,0.0004518773931425711,57.27645006609908,103.13631410343751,-0.0026899460733342886,-0.011777156392460374,-0.0011199511363963778,-0.006151386303770118,-0.03847811326826301,-0.017925715146475268,0.1305407469097312,-0.0017065771164903108,0.011261695162256644,6.470248276005162,6.016175383878851,2.0142458787525466,0.31728576942122544,0.3185689627645745,0.05718770956636177,25.0,25.0,25.0,25.0,25.0,25.0,24.0,15.194,0.0,0.0,1.0,1781042415960271518
1781042416082371916,0.0004355660993354752,57.27687997792596,103.13651091399694,-0.0028210128126374585,-0.011781001540546324,-0.0011006256315502525,-0.004717763659145378,-0.027531709557698132,-0.009099854853146523,0.14290320330163994,-0.0034486974601019836,0.009777977238838146,6.927742385553359,6.06901403526675,2.02729490921119,0.29801003591665093,0.3136841763215595,0.04766449359251539,25.0,25.0,25.0,25.0,25.0,25.0,24.0,15.683,0.0,0.0,1.0,1781042416056640510
1781042416181858437,0.0004843778924077428,57.27683752097932,103.13654217240106,-0.0030298905197449805,-0.011760297348679206,-0.0012542446386076018,-0.007246489118712427,-0.02467214162752304,-0.008813835960874893,-0.1937870806873224,-0.016403679634950624,0.005044088234408076,6.356795315713847,5.880486132185468,3.5649104010070345,0.4392597442928026,0.3188145526768582,0.18685519253990912,25.0,25.0,25.0,25.0,25.0,25.0,24.0,16.747,0.0,0.0,1.0,1781042416176025070
1781042416282286372,0.0004506220306142903,57.27674151598504,103.1364557605476,-0.0033179869074183533,-0.01176947814605411,-0.0011695651605169225,-0.00637364308432641,0.005516865201147118,0.001199507644136001,-0.21341866972201748,-0.011108200497956954,0.004335578054988598,6.925578745301353,5.809057893237204,3.5791953758616537,0.4708027343299851,0.32191608684821166,0.20111070430971517,25.0,25.0,25.0,25.0,25.0,25.0,24.0,17.308,0.0,0.0,1.0,1781042416263809297
1781042416384681953,0.0004573745254320356,57.276829202348566,103.13643692734432,-0.002532513674695612,-0.011665308741061356,-0.0011569865542043283,-0.006410428379845582,-0.06244476451656942,-0.035986558346606905,0.16076948260612411,0.006408259426229644,0.011012844147236566,6.6056873132030285,5.982839739753849,2.017289522248862,0.3171115461173777,0.32360028183211315,0.05592341669958099,25.0,25.0,25.0,25.0,25.0,25.0,24.0,15.302,0.0,0.0,1.0,1781042416357055381
1781042416483697052,0.0004697881011431077,57.276995637185,103.13656338853453,-0.0029241209100385576,-0.011775892531310258,-0.0011217574151219088,-0.011012119093418723,-0.03988228866452447,-0.01833143237836702,0.1163730905671605,-0.002870489325118097,0.017174044125491835,7.263932071410053,6.047893150162413,1.9656953662761991,0.3065386202814281,0.3205918439794701,0.04769817059090448,25.0,25.0,25.0,25.0,25.0,25.0,24.0,15.952,0.0,0.0,1.0,1781042416480002020
1781042416581952873,0.000534490008059549,57.277052800371656,103.136531612599,-0.0019066862039013256,-0.01162393682669083,-0.0012574427603549735,-0.00918732956055729,-0.027538680820776637,-0.022733696914257823,0.13386974814033845,0.004663842242076461,0.01597674116736042,7.141462999737657,5.981252783485646,1.9808482150820397,0.31452088158350267,0.3179702406037985,0.05100658700860969,25.0,25.0,25.0,25.0,25.0,25.0,24.0,15.787,0.0,0.0,1.0,1781042416572123228
1781042416685680860,0.0004992735863322308,57.27683625249214,103.13642864772748,-0.002355880851501158,-0.011679167960832156,-0.0011623466035611083,-0.0043078863563636,-0.025827024754654395,-0.01237012799489542,0.12518610838552163,-0.0007353114203353719,0.009892351632254588,6.844385595788655,6.016613662937131,1.990972936047981,0.3030596140945699,0.3196620907570256,0.04935538643732278,25.0,25.0,25.0,25.0,25.0,25.0,24.0,15.524,0.0,0.0,1.0,1781042416671375116
1781042416782022124,0.000495335355370242,57.27724642663824,103.136654032398,-0.002599341987361332,-0.011664366263627804,-0.001203804922195576,-0.012881459897326366,-0.04987836236387384,-0.02577179960320047,0.10697806172746366,-0.0031169073794279937,0.0193359195152172,7.17741570487611,6.005503487568557,1.9498930362174711,0.31220875030255585,0.3259244427986967,0.04996539874039252,25.0,25.0,25.0,25.0,25.0,25.0,24.0,15.821,0.0,0.0,1.0,1781042416771402788
1781042416882492374,0.000452618683424637,57.27599395352759,103.1360299422962,-0.002192185699563539,-0.011693405046608636,-0.0011113048856591396,-0.002185220989086232,-0.012715238553142725,-0.01613938944939141,0.12396421271157228,0.008946618959595668,0.005955589366774271,5.252200937871462,5.971896068699119,2.145662690485267,0.3298301718955078,0.31247279248204185,0.06910329446094395,25.0,25.0,25.0,25.0,25.0,25.0,24.0,14.081,0.0,0.0,1.0,1781042416863035637
1781042416982334448,0.0004899028711311186,57.27684690820726,103.13657583098971,-0.002368296403447769,-0.011736417257474431,-0.0012319745030132572,-0.006745837965334928,-0.028474397064403315,-0.018053988618482095,0.13305583270232557,0.004832154056856943,0.010737293561057447,6.76481254785225,5.990417384766524,1.97949457645474,0.31467017191935953,0.316290015506491,0.05364024114517281,25.0,25.0,25.0,25.0,25.0,25.0,24.0,15.419,0.0,0.0,1.0,1781042416959601064
1781042417082689490,0.000517175697431271,57.27710441940114,103.13681637651288,-0.0032859910936747947,-0.011828181068455214,-0.0012870454870423465,0.010578194504106905,0.0325274936554441,0.01625935343662752,-0.08721109396339335,0.008080285242381515,-0.020145095006621556,6.710877388921881,5.806447535934146,3.6016114270288218,0.43255860829619863,0.3121298005744318,0.18737558073759708,25.0,25.0,25.0,25.0,25.0,25.0,24.0,17.051,0.0,0.0,1.0,1781042417078258427
1781042417182194931,0.00047209273050393514,57.27639801377585,103.13640816516164,-0.002773137391163602,-0.011800664446327868,-0.00119106956108901,-0.003835250114048434,0.017106946276318306,0.0045888296677663865,-0.17110881662907362,-0.007151403576984382,0.0021395430205080426,5.650878452895376,5.849833247205617,3.4276198124362325,0.44842872389458693,0.3302552104209801,0.1850459295043253,25.0,25.0,25.0,25.0,25.0,25.0,24.0,15.892,0.0,0.0,1.0,1781042417170485890
1781042417282477114,0.0004818936269523959,57.27664528952587,103.13651476188848,-0.003168018252521537,-0.01182187606584894,-0.0012333101403389432,-0.012841652178764365,-0.025414720157368696,-0.016097199690431045,-0.24673616545076368,-0.01357002959940711,0.008339036809544204,7.383976918571953,5.842261631021642,3.6364429958012545,0.46078219462891334,0.32918815761469933,0.201718010016192,25.0,25.0,25.0,25.0,25.0,25.0,24.0,17.854,0.0,0.0,1.0,1781042417277879832
1781042417381985053,0.0005223431615501209,57.27667816210238,103.13654514162737,-0.0020323125470158754,-0.011734189524837032,-0.00129351492995457,-0.006680721957101464,-0.04021237901015813,-0.022966432959313575,0.13618516086571847,0.0018325593751182035,0.013468237811521623,6.487420397356252,5.986400865502898,2.0198572615809804,0.32436608483173063,0.31470254792291397,0.05873957810658103,25.0,25.0,25.0,25.0,25.0,25.0,24.0,15.191,0.0,0.0,1.0,1781042417365623194
1781042417482247813,0.0004365183882161841,57.276661034879915,103.1364125374286,-0.0027671888630588382,-0.01171564256011535,-0.0011141995297367752,-0.0042332873417195065,-0.03274392016116664,-0.021381925630641885,0.1472350343839785,0.008302622281572872,0.008537867108129682,6.544750113681199,6.021773414703865,2.0501039061188684,0.3019596537704008,0.31170658310224686,0.0511290251640291,25.0,25.0,25.0,25.0,25.0,25.0,24.0,15.281,0.0,0.0,1.0,1781042417469262081
1781042417582327212,0.0004875966596805312,57.27692801907243,103.13659417102149,-0.0032193730093617503,-0.011833601536653722,-0.0012081580143817705,-0.0052042847425594965,0.013772641601153214,0.005032467386163396,-0.2193432134071303,-0.008141307870256374,0.00006964786784538597,7.457784491927512,5.807368809979765,3.611567242430199,0.4703592330590387,0.3231185991800925,0.2047074361200227,25.0,25.0,25.0,25.0,25.0,25.0,24.0,17.875,0.0,0.0,1.0,1781042417580950639
1781042417681676412,0.0004760291659268494,57.27652321728568,103.1364117740659,-0.00276991725237454,-0.011765039311762784,-0.001208103468696894,0.005459220124482014,0.033764097046543054,0.017003241182026292,-0.12345842557693495,0.0020115426030181908,-0.009220192547616132,6.118957015383693,5.849225197169145,3.4878067298210693,0.44949104510903215,0.32647589367680974,0.18844850151470932,25.0,25.0,25.0,25.0,25.0,25.0,24.0,16.42,0.0,0.0,1.0,1781042417681186531
1781042417782624354,0.00045278451755833594,57.27667565918613,103.13638833529194,-0.003040154094495933,-0.01170365727339398,-0.0011647672132969044,-0.00123591700699201,-0.009456275542799524,-0.002585262810304668,-0.14585570651877677,-0.004081707187480192,-0.0012764130325340463,5.86017887215279,5.838955809119394,3.483840701071906,0.44836675594529385,0.32667129664903427,0.1863397643596443,25.0,25.0,25.0,25.0,25.0,25.0,24.0,16.144,0.0,0.0,1.0,1781042417779186795
1781042417882203520,0.00045726836139635434,57.27704658845299,103.13650992300012,-0.003300988198482432,-0.011676610909403235,-0.001172681019248991,0.013657887360181208,0.048928256372737185,0.027101317226123092,-0.0791880287593192,0.00932820998909992,-0.02242563249659704,6.6714372096302075,5.826538576936989,3.557353484436319,0.4494174654769978,0.3164332534209225,0.19232500210684217,25.0,25.0,25.0,25.0,25.0,25.0,24.0,17.014,0.0,0.0,1.0,1781042417867568993
1781042417982216670,0.0005364372742223589,57.2769689223401,103.13663674556368,-0.0027402548241008727,-0.01175740038995421,-0.0012827582705649586,0.027606423824648257,0.09232374070324167,0.05168466238981833,-0.009115723869553949,0.01739127386215322,-0.0413175445244062,6.783765462466442,5.817395174255215,3.5704263422206997,0.4430625813323281,0.3202372587330459,0.19114339610013023,25.0,25.0,25.0,25.0,25.0,25.0,24.0,17.126,0.0,0.0,1.0,1781042417971889737
1781042418085694650,0.0005111534270470034,57.27687037240998,103.13648333789276,-0.002721963154446725,-0.01169212721942913,-0.0012464732161158794,-0.006910781172140731,0.01000042212499667,0.0005138115280397213,-0.21955551535754675,-0.010182067138105736,0.003256083184205666,6.767185330690988,5.808624262710977,3.5441720869053706,0.46846380060751497,0.33953770882458495,0.1996503239628691,25.0,25.0,25.0,25.0,25.0,25.0,24.0,17.128,0.0,0.0,1.0,1781042418067119054
1781042418182203794,0.00046444555941197526,57.27675624531685,103.13636296955568,-0.0030351670484852905,-0.011657045608465318,-0.0011928440745630948,-0.002799126263283933,0.01991609085710316,0.005902888467201126,-0.19437358973658192,-0.002124835094613525,-0.002012348698537214,7.134738728227251,5.829244903307415,3.5731169230415314,0.4799704730279545,0.324038786808585,0.20570317051697493,25.0,25.0,25.0,25.0,25.0,25.0,24.0,17.547,0.0,0.0,1.0,1781042418168022159
1781042418282545308,0.000377925932201914,57.27613137421412,103.13604402211313,-0.0031287616217956942,-0.011636078999599756,-0.001052482515102694,-0.007888508611018093,-0.02130204233967684,-0.008387748444954019,-0.16128915639287977,-0.017801247669771512,0.00957211843756253,4.580838651280098,5.878625420900376,3.345246460417893,0.4242781194959329,0.3216774332375122,0.16939650682575863,25.0,25.0,25.0,25.0,25.0,25.0,24.0,14.72,0.0,0.0,1.0,1781042418273681967
1781042418382386552,0.0004151672556022501,57.27638385444748,103.13631591302946,-0.003202644486621334,-0.011845584436739406,-0.0011269003984032326,-0.01660862996746987,-0.0265019263041621,-0.013337919130687832,-0.2584809515791984,-0.023166252370841668,0.0183269618833176,6.244435131209033,5.8001977899700075,3.501482536947371,0.4469681262472407,0.3433549827325658,0.18908496770893707,25.0,25.0,25.0,25.0,25.0,25.0,24.0,16.526,0.0,0.0,1.0,1781042418375656353
1781042418482302539,0.000565965981073343,57.277009950767905,103.13659363331166,-0.0025085271984212924,-0.01162724414620722,-0.0013750221999907428,0.01348269549895719,0.05947773228066051,0.02647890391320472,-0.09940591392614184,0.014000933155823498,-0.022155476551371504,7.244573202850641,5.808021761029211,3.563306328756004,0.4645555174175269,0.32955117972624903,0.20181516980839603,25.0,25.0,25.0,25.0,25.0,25.0,24.0,17.612,0.0,0.0,1.0,1781042418469498774
1781042418582294028,0.0004768374205702304,57.276845918942094,103.13643098228766,-0.002828983624969329,-0.011645449910437543,-0.001201465826334696,0.010621446231029275,0.04051884267295296,0.02640800026454841,-0.10372490302166154,-0.0020061663176415613,-0.017444540483654722,6.1990477634508085,5.8617319817805145,3.512366739423002,0.4560243227436792,0.3192785030049391,0.19110529053062675,25.0,25.0,25.0,25.0,25.0,25.0,24.0,16.54,0.0,0.0,1.0,1781042418566006700
1781042418681984469,0.0004931090955185034,57.276786910763455,103.13650604412028,-0.002187657663945163,-0.01174373189167159,-0.0012251063046723697,-0.003041678110681317,0.0040708535215844424,-0.0018665656636043296,0.11473854489671198,0.004207645476789902,0.009289470131472789,6.3778810612685355,6.0543120617915145,2.029504398273061,0.31383170348721057,0.30089080299432586,0.056342927810708494,25.0,25.0,25.0,25.0,25.0,25.0,24.0,15.133,0.0,0.0,1.0,1781042418672846085
1781042418782666836,0.0004982691028112846,57.27682969350931,103.13647191419604,-0.0021888061714269635,-0.0116998522740678,-0.0012074138693993024,0.005006328688839651,0.006577664982194102,0.00414932939142299,0.1760928176952429,0.004582494782830301,-0.0010020508236098554,6.716293884270361,6.064899858375728,2.0435722211854297,0.29428399465732313,0.31645281216839966,0.04795597778953958,25.0,25.0,25.0,25.0,25.0,25.0,24.0,15.483,0.0,0.0,1.0,1781042418766982250
1781042418882192261,0.00043335999743463014,57.27672193385495,103.136411020341,-0.002508370520917744,-0.011693938109496002,-0.0011712093323673306,-0.005360400467557026,-0.02089660043394012,-0.011388470769218223,0.1378099604789211,0.0005085947208729399,0.01152050980133922,6.697430147868392,5.993957043377961,1.996580962996008,0.32161934780423096,0.3197823188409261,0.05668704558418313,25.0,25.0,25.0,25.0,25.0,25.0,24.0,15.386,0.0,0.0,1.0,1781042418870943969
1781042418981987663,0.0004345946889248634,57.27663898469253,103.13635625784622,-0.0031241326790225885,-0.011725584083642096,-0.001164873503889008,0.0025212108167776983,0.013187853380967243,0.010980283015905788,-0.15075220325756733,-0.0038759919652608136,-0.009422198784645936,6.724541254699631,5.860356971133815,3.569655154811033,0.44753426488593406,0.31701383462533145,0.19213665877827543,25.0,25.0,25.0,25.0,25.0,25.0,24.0,17.111,0.0,0.0,1.0,1781042418978746251
1781042419082207885,0.00040261222577467386,57.2764717535638,103.1363722823681,-0.0030830527907726385,-0.01181372119979999,-0.0011135605480218436,-0.0013043035882098109,0.01213316810449694,0.005030996963970529,-0.15021170314295862,-0.006547436558277385,0.0009313318319106278,5.4463778184959875,5.827177346363533,3.4466812669680222,0.4414312047842223,0.3241027830334481,0.1810076501672142,25.0,25.0,25.0,25.0,25.0,25.0,24.0,15.667,0.0,0.0,1.0,1781042419068178786
1781042419182252960,0.000530996185364182,57.277109296163715,103.13669026774208,-0.0027082327508025925,-0.011707631815973164,-0.0013197725484687347,0.02229956210916471,0.05933864170085064,0.032327582733333055,-0.015726926976610787,0.01899770517845499,-0.03377709235101145,6.442877705497603,5.835300449754818,3.557222776865692,0.4365913870346925,0.31319281640359864,0.18658908653054324,25.0,25.0,25.0,25.0,25.0,25.0,24.0,16.772,0.0,0.0,1.0,1781042419168356359
1781042419285854255,0.00047843944857666696,57.27664912141026,103.13639162535604,-0.0026707127310568895,-0.01169256819835796,-0.001224291544452736,0.007371357300786729,0.06028765081675007,0.02679694110442241,-0.11582495450893986,0.0028430565715628665,-0.014012813624152336,6.065425858674852,5.878208352906173,3.503357229646672,0.44484258517417913,0.3126025839937033,0.18656668052252892,25.0,25.0,25.0,25.0,25.0,25.0,24.0,16.391,0.0,0.0,1.0,1781042419267137125
1781042419385699294,0.0005116842315317434,57.27672509531835,103.13647391614326,-0.00258074341912672,-0.011752796979045998,-0.001262153083760953,0.006774441283070526,0.020691897593269188,0.01716187775506533,-0.1235305737311545,-0.002000791100434741,-0.0165114348285626,6.757615049526164,5.8788227598903156,3.585327018512612,0.43813594094121766,0.3151695181507355,0.1893079190831012,25.0,25.0,25.0,25.0,25.0,25.0,24.0,17.164,0.0,0.0,1.0,1781042419364513053
1781042419485721356,0.0005179456354282211,57.27699554911458,103.13654227828,-0.002104515334916994,-0.011636653779418426,-0.0012595138421299308,-0.015583346124683334,-0.047310807224594256,-0.0268559382592622,0.08173563728355088,-0.0017278082689361803,0.022599708095227385,6.801254628713696,5.998802057479089,1.969089523941198,0.328077076512364,0.32568679883841917,0.05779676831249263,25.0,25.0,25.0,25.0,25.0,25.0,24.0,15.481,0.0,0.0,1.0,1781042419484540812
1781042419582294576,0.0004655143112768364,57.276490268403194,103.13635692690956,-0.0026794302742169287,-0.011698255005236488,-0.0012152271555813182,0.004992681775956333,-0.0029503484431750186,0.0020161317642576923,-0.10371145605052882,0.0005830371796925666,-0.0098133255462223,5.668482353876328,5.871286053385427,3.4827542732663086,0.4341915745814272,0.319110116108602,0.18011539410301036,25.0,25.0,25.0,25.0,25.0,25.0,24.0,15.956,0.0,0.0,1.0,1781042419561689563
1781042419682060834,0.0004466589132844008,57.27640283850759,103.13618070711516,-0.0026773777006215034,-0.01165785080021424,-0.0011400816580808715,0.000610969322861772,0.029558667528834265,0.019030433499548173,-0.14443369159946248,-0.010839727647207953,-0.00476653137628239,5.522259994644764,5.872987726568674,3.443699936502604,0.4372010971503101,0.3200556285211721,0.1803765355459375,25.0,25.0,25.0,25.0,25.0,25.0,24.0,15.777,0.0,0.0,1.0,1781042419666086805
1781042419781859137,0.0005109675165849996,57.277298269016875,103.13663581495908,-0.0026885880674971233,-0.011649275923164329,-0.0012564583148474238,0.01573898558787995,0.04727921523297811,0.029125663236099816,-0.0737403325227308,0.005835725561072795,-0.029163835818351216,6.924541352771915,5.845328444291363,3.5818536678115973,0.4327535278012801,0.3241195059802649,0.1889874819604029,25.0,25.0,25.0,25.0,25.0,25.0,24.0,17.298,0.0,0.0,1.0,1781042419780360748
1781042419885668379,0.0004443641471876999,57.27656936027158,103.1364084921573,-0.0027953629784337637,-0.01178767555066784,-0.0011714620945237778,0.0005758940786691058,0.04445705496656908,0.01886789686022402,-0.15699587758445677,-0.010167859365949085,-0.0018814235740024952,5.46796684714227,5.890985784485255,3.462116188124583,0.4389634266058711,0.30913029206411097,0.18037136423426095,25.0,25.0,25.0,25.0,25.0,25.0,24.0,15.75,0.0,0.0,1.0,1781042419878306490
1781042419982289368,0.0004174347315550675,57.27661736997422,103.1363955495253,-0.003218278756915156,-0.011731202234895623,-0.0011962146949012452,-0.014237694656675067,-0.039926806565789175,-0.02269238091448692,-0.2241956121605468,-0.014513709186181254,0.014091023372340018,6.347444671742112,5.862925576378997,3.541406982100788,0.446870002173007,0.3195208353767923,0.18954443932835985,25.0,25.0,25.0,25.0,25.0,25.0,24.0,16.708,0.0,0.0,1.0,1781042419976948967
1781042420085698431,0.0004840786065857475,57.27651987431897,103.13628073856997,-0.0018822866049704892,-0.01159553366527238,-0.0012176778080763683,-0.004038793182563519,-0.032894389187447776,-0.020057042589411184,0.1312761038104099,0.002477165948634921,0.010920331347784189,5.873931157346663,5.985915302629219,2.096033637624532,0.32422272749286396,0.3146685228478337,0.06335713218850779,25.0,25.0,25.0,25.0,25.0,25.0,24.0,14.658,0.0,0.0,1.0,1781042420062910980
1781042420185681814,0.00048493279287606345,57.276797185706535,103.13653228144858,-0.002854428084279832,-0.011791225124187217,-0.0012298938797265491,0.031791551155483135,0.07327288659302754,0.03971786080063771,0.05535564955165625,0.03037874437745654,-0.05378334091352921,6.488009156948253,5.831762141237335,3.554567775609839,0.4099041574663616,0.324404607849205,0.1785902069482528,25.0,25.0,25.0,25.0,25.0,25.0,24.0,16.787,0.0,0.0,1.0,1781042420173047710
1781042420282419463,0.0004529643506013659,57.27661816239506,103.13652311694293,-0.002959231448058378,-0.011819852855196596,-0.0012237005162084996,-0.005613063023802925,-0.0007676949041904815,-0.0007276750095345478,-0.19095428119675553,-0.012658154916329503,0.0027110649238764836,6.361390265669867,5.836694786691957,3.539394815738225,0.44855405331621856,0.31729615840101444,0.1898960505955459,25.0,25.0,25.0,25.0,25.0,25.0,24.0,16.693,0.0,0.0,1.0,1781042420270095716
1781042420381729481,0.0004336245981965576,57.275903562270194,103.1361284624482,-0.002003410185163129,-0.011734725005551946,-0.0011745465302884638,-0.0014271612646051196,-0.019776031783994567,-0.012818310137751568,0.13976801775525022,0.004961057690066225,0.007032209953221279,5.571478618040412,5.989803124044517,2.119200935445166,0.3348220016011394,0.31295079430614337,0.06889156981872915,25.0,25.0,25.0,25.0,25.0,25.0,24.0,14.397,0.0,0.0,1.0,1781042420379806350
1781042420482090408,0.0005370515523875675,57.276733417148755,103.13659081162984,-0.001833141872840612,-0.011723873039796629,-0.001273147278080062,0.006048329320167491,0.009373921130236842,0.009663913973920125,0.15844289635046452,0.0025645039863685716,-0.003960709312171131,5.717236740579525,6.066731664768791,2.123102105425458,0.31492155298419927,0.3147696839996957,0.06159366656387611,25.0,25.0,25.0,25.0,25.0,25.0,24.0,14.598,0.0,0.0,1.0,1781042420474436804
1781042420582164828,0.00048664245614018874,57.27651749839809,103.13647719593943,-0.001984429484881018,-0.011757503580112473,-0.0012303473975231614,-0.003736804799448242,-0.007221399936539283,-0.008327236111116522,0.11537174309696677,0.004458225258672475,0.008647381356760046,5.803729837018495,6.010196299474967,2.0581695870224466,0.32637281334931567,0.3124781698292086,0.06441919688628578,25.0,25.0,25.0,25.0,25.0,25.0,24.0,14.575,0.0,0.0,1.0,1781042420557820376
1781042420682086660,0.0004459016339273545,57.27609948985122,103.13620770523112,-0.00260817706003908,-0.01174570562066956,-0.0012012291313846356,-0.0029983292054195972,-0.025213798133074724,-0.01572935356297959,-0.14353326089179552,-0.00021610363602410045,0.002145459325549017,5.401617426706581,5.843341609502658,3.4411799471984907,0.4335083104975735,0.3218131271136337,0.17821765765408146,25.0,25.0,25.0,25.0,25.0,25.0,24.0,15.62,0.0,0.0,1.0,1781042420668673985
1781042420782239073,0.00045567122383123365,57.27683306808989,103.13658838574317,-0.002967763161072251,-0.011778070285773164,-0.0012104481511328894,0.00039839911201444407,0.0021324830164753178,-0.001608671805100932,-0.14142897302592533,0.00024347196142351704,-0.00546759960275826,6.330062599378243,5.848233495171022,3.530472453542522,0.4546354174229777,0.31729691463788184,0.1916919495483347,25.0,25.0,25.0,25.0,25.0,25.0,24.0,16.672,0.0,0.0,1.0,1781042420772775086
1781042420882127447,0.0004851952328868935,57.27652367369289,103.13636814698812,-0.0024912917231498764,-0.01170005047226758,-0.001246716208266236,0.007639776144810185,0.03725587004172133,0.018345710016965073,-0.1064792535421648,0.005433439459586631,-0.014646012957737691,6.291451626841499,5.852609798624252,3.518412213181482,0.4374986325155666,0.318405356455605,0.18582724601148176,25.0,25.0,25.0,25.0,25.0,25.0,24.0,16.604,0.0,0.0,1.0,1781042420870171929
1781042420982334038,0.0005012443226148982,57.27653134065183,103.1363467940876,-0.0024585868719232975,-0.01165717817289711,-0.0012684361419783889,-0.00013511441699606483,-0.007658811363390011,-0.003034776579179027,-0.1341996327296016,-0.000012328883678623764,-0.0038922771886414,5.907283890143051,5.874474577358292,3.4877972094818857,0.43684325203303304,0.3177417114526736,0.1827745107463,25.0,25.0,25.0,25.0,25.0,25.0,24.0,16.207,0.0,0.0,1.0,1781042420980029178
1781042421085691086,0.0005672550279798899,57.27736457848826,103.13674060248196,-0.002245043069313666,-0.01163755658792198,-0.0013699148340605351,0.031733727777393764,0.0823570153886166,0.04717888605319079,0.03338657045323388,0.022387538014034127,-0.05013730709513375,6.63066276935917,5.828679987785325,3.5699748242835403,0.42690316392070665,0.31578762394094134,0.18481214961656056,25.0,25.0,25.0,25.0,25.0,25.0,24.0,16.957,0.0,0.0,1.0,1781042421075700431
1781042421183502123,0.0004970808641523868,57.2768441996617,103.13646727312116,-0.002574241178881378,-0.0116419924427999,-0.0012914782374657484,0.008265544117784513,0.0019105214926879448,0.005768595172992777,-0.07661751027418834,0.006444360572487092,-0.016686240290551324,5.946462908461512,5.880146794213022,3.5277281582030877,0.4190428046603277,0.3168175018202016,0.17735258185605457,25.0,25.0,25.0,25.0,25.0,25.0,24.0,16.268,0.0,0.0,1.0,1781042421170675852
1781042421282538934,0.00041971444295388864,57.27663452281868,103.13631835061643,-0.0023086942930773454,-0.011632657929630752,-0.0011206499731462578,0.004958458982526978,0.0007110702400260561,0.005038069828869464,0.1562889762638599,0.0001519428775504432,-0.002794209225169238,5.369274637180521,6.049008211786573,2.1765901821560956,0.3159114798313553,0.3078425116745482,0.06416849109641802,25.0,25.0,25.0,25.0,25.0,25.0,24.0,14.283,0.0,0.0,1.0,1781042421277069019
1781042421381832911,0.0005949892057253266,57.277239636076786,103.13669648229823,-0.0020051277996788134,-0.01166650363201171,-0.001408421326520503,0.03037598776620625,0.09032992627591624,0.046599444178826034,0.025928429795466803,0.02406457827789171,-0.04917305410625431,6.64537782935037,5.847046737688061,3.555743426769073,0.4209930997039958,0.32166918834124936,0.18316008778820023,25.0,25.0,25.0,25.0,25.0,25.0,24.0,16.974,0.0,0.0,1.0,1781042421375999931
1781042421482769541,0.00046714496040861566,57.27641800502484,103.1362170993411,-0.0022860241113124404,-0.011618640813320725,-0.001227181565950147,-0.0006964960194567005,-0.0021313937256788773,0.0031804256778755102,-0.14552209888264586,-0.0067793860002487855,-0.0013664044187387465,5.596802426357337,5.86273828040951,3.455814430204096,0.4342970804962552,0.322890628709181,0.17982313421895849,25.0,25.0,25.0,25.0,25.0,25.0,24.0,15.852,0.0,0.0,1.0,1781042421475427068
1781042421582345277,0.0004772230444502684,57.27677675780116,103.13638921546136,-0.002543828052263572,-0.01158801114536828,-0.0012157747468986531,0.018313472729780192,0.05139484559333751,0.024907647477782083,-0.02249607642573478,0.014614371515563026,-0.02725923086033059,5.219222052548433,5.88450086628387,3.4416739187625613,0.4357636205475242,0.3132667256428694,0.17756966908602972,25.0,25.0,25.0,25.0,25.0,25.0,24.0,15.472,0.0,0.0,1.0,1781042421559613968
1781042421681701521,0.00037226889129798435,57.27601075268755,103.13613752030588,-0.0026889745197853656,-0.011981211504188096,-0.001130428400129529,-0.0090468471182821,-0.034839957187046244,-0.018045309328103935,0.12190378511735717,0.005817630299017439,0.014963285928952966,6.674262798472845,5.978438317935764,1.981384125559996,0.36650443988799114,0.3192651700633795,0.07057084427854286,25.0,25.0,25.0,25.0,25.0,25.0,24.0,15.39,0.0,0.0,1.0,1781042421681479236
1781042421782600561,0.0004506282984249119,57.27640606437184,103.1363225759463,-0.0018011508278358297,-0.011684075867244875,-0.0012440755002299548,-0.00346234397059514,-0.020102369750020783,-0.014715721018237062,0.12737708046964688,0.006592648703867205,0.008768361443271228,5.686335742179209,6.0191301138588535,2.1107332389673688,0.3195685001487941,0.31143879895862786,0.0630024673912739,25.0,25.0,25.0,25.0,25.0,25.0,24.0,14.51,0.0,0.0,1.0,1781042421778632955
1781042421882396649,0.00044371394494697975,57.27679173321285,103.13634407187814,-0.002111748130117561,-0.01163159959363304,-0.0011510132771433738,0.0020849613125646692,0.011086833847602343,0.005182801130928134,0.15970617263209913,0.00344538249243039,0.003813018536455817,6.452123590754988,6.044155939359594,2.0536120340349355,0.32437653317045717,0.3171423726578833,0.059713947299156994,25.0,25.0,25.0,25.0,25.0,25.0,24.0,15.251,0.0,0.0,1.0,1781042421861503504
1781042421982400812,0.00039731517194368816,57.2764708751828,103.1361411186169,-0.0031750342521288995,-0.011610167448147505,-0.0010926549180399262,0.0023049279750062867,0.03310686578830538,0.016950465117925497,-0.14350413198422024,-0.003078017252694273,-0.006498309386913608,6.081876165604798,5.8316892180478215,3.4918659121595725,0.4606859155293937,0.31647639877923195,0.1916376909753514,25.0,25.0,25.0,25.0,25.0,25.0,24.0,16.374,0.0,0.0,1.0,1781042421974128028
1781042422082061423,0.0004891645914886807,57.27684050333365,103.13666075959682,-0.0027054716102617206,-0.011877737860263651,-0.0012734265924394842,-0.01553523590459148,0.014156579563778905,0.0029282485333323306,-0.2850897631344178,-0.02349160840093375,0.016193002225721457,7.083844462160499,5.86795358138279,3.5887457256531134,0.445684028133341,0.31825085063795666,0.1944085626682144,25.0,25.0,25.0,25.0,25.0,25.0,24.0,17.499,0.0,0.0,1.0,1781042422066017010
1781042422181932835,0.00045520575736494434,57.27619097179169,103.13624764249512,-0.0017494614993519074,-0.011760706001796677,-0.0011937999675191834,-0.004183483709691018,-0.031045427929789416,-0.017715286120144474,0.13767268428908452,0.0018041967996266935,0.010149042028538446,6.2002226930519715,5.990804217833268,2.0987725432550017,0.3129017425801235,0.31710921037336837,0.05745162603642836,25.0,25.0,25.0,25.0,25.0,25.0,24.0,14.977,0.0,0.0,1.0,1781042422175993718
1781042422282380940,0.0005057273150713268,57.276832411214,103.13652054475124,-0.0025247118683335425,-0.011672558941192065,-0.0012931344951443442,-0.003646273365705461,-0.015333828859486674,-0.00712886150373955,-0.15964183617618746,-0.0024812106906988932,-0.00421493833474969,6.401258284851511,5.8406022114767735,3.5406687775750956,0.4394114550957557,0.3199215226776041,0.18724484377602893,25.0,25.0,25.0,25.0,25.0,25.0,24.0,16.729,0.0,0.0,1.0,1781042422260361748
1781042422385687447,0.0004407347345984593,57.276342265519936,103.13650321534593,-0.0021804300839523673,-0.01190224644370867,-0.0012112935229889711,-0.0053187957348434225,-0.023034048096296098,-0.012775908901102178,0.1253960167372863,0.00013616253232826955,0.013048215350484432,6.259873866456229,5.976583802147151,2.02828268707373,0.34923207221834607,0.3241256121040388,0.0688448659055508,25.0,25.0,25.0,25.0,25.0,25.0,24.0,15.007,0.0,0.0,1.0,1781042422371261581
1781042422482354043,0.0005102754956868336,57.27642584208051,103.13644083470402,-0.0015043311372814152,-0.0117508850864173,-0.0013004948738715555,-0.006057263717511706,-0.032628568926147766,-0.019543329318251906,0.1236664711500022,0.0008615459172774236,0.013806207351291669,6.26343889055656,5.986681950287658,2.063008822975008,0.33040297185364703,0.31785967460443004,0.06259866652843168,25.0,25.0,25.0,25.0,25.0,25.0,24.0,15.024,0.0,0.0,1.0,1781042422478029751
1781042422581878186,0.0004951477458718817,57.27626951109224,103.13613274299256,-0.0014129602641659723,-0.011581985686817129,-0.001264018652918897,-0.0064152409925946,-0.030428051072414856,-0.021520546425829797,0.12265910608395574,0.004738731407654474,0.013538666814356445,6.086868185447813,5.972287268650684,2.0568996379583693,0.33607370721465707,0.3149320957167229,0.06569629834955752,25.0,25.0,25.0,25.0,25.0,25.0,24.0,14.833,0.0,0.0,1.0,1781042422575976820
1781042422682320440,0.000484508054019721,57.27662396157027,103.13636103826688,-0.001822057960683845,-0.011600051500536857,-0.001254603719477916,-0.007397741895649649,-0.043569977755004624,-0.02518641293349465,0.11316119669778732,-0.0003167053388641484,0.0168079209614206,6.465022881918509,5.948250424249889,2.0230316175017915,0.33395134245792735,0.32138720249666103,0.06219899887275694,25.0,25.0,25.0,25.0,25.0,25.0,24.0,15.154,0.0,0.0,1.0,1781042422663154954
1781042422782100661,0.000515224388252786,57.27680615707863,103.1365386232215,-0.001607094292710695,-0.011700902096220694,-0.0013309422122324197,-0.011040437861837017,-0.045038085874210064,-0.02400504126668423,0.10104842553567683,-0.002786721201598396,0.019152372959127608,6.479554790155605,5.9739307380441975,2.01217585840982,0.35102204101606244,0.3234363449172303,0.06759661224329816,25.0,25.0,25.0,25.0,25.0,25.0,24.0,15.208,0.0,0.0,1.0,1781042422758470415
1781042422882296877,0.0005462662082811572,57.276664164741064,103.13644420572672,-0.0012254796898454625,-0.011642400036193755,-0.00135376750197958,-0.006289032027757418,-0.029961977119840656,-0.014945330248000635,0.11333455544582433,-0.0030408638637121786,0.01508517729749012,6.333010075870852,5.989489922124558,2.0382948863094525,0.3393882561015079,0.3193611713460256,0.0651721729139452,25.0,25.0,25.0,25.0,25.0,25.0,24.0,15.085,0.0,0.0,1.0,1781042422866229724
1781042422982583039,0.0005132756227481376,57.27677073197606,103.13639897476266,-0.0016585559429856248,-0.011547872448378212,-0.0012960902770203866,-0.006273707581871025,-0.016813990489232336,-0.007260735001137402,0.10082613447543716,-0.004835140153569685,0.01514375179777398,6.500049302103976,6.014967367988597,2.0152922830792352,0.31617235059864246,0.3273990988753631,0.05660366748013713,25.0,25.0,25.0,25.0,25.0,25.0,24.0,15.23,0.0,0.0,1.0,1781042422963069144
1781042423082219344,0.000525482532536288,57.27687635655919,103.13660353700676,-0.002151921488542585,-0.011683602164388513,-0.0012992987338019237,0.013675689908368396,0.07178674853094488,0.03293316244975917,-0.07308955274814706,0.005786432815995555,-0.022414299809343223,5.541474428411832,5.878915278617169,3.454654466049442,0.43773228189371594,0.3214493835377804,0.18074519924701016,25.0,25.0,25.0,25.0,25.0,25.0,24.0,15.815,0.0,0.0,1.0,1781042423070412650
1781042423182544555,0.00048441347209759534,57.27609979181694,103.13618713798644,-0.001349984457767438,-0.011656900806870731,-0.0012934910371386152,-0.006180367476191789,-0.03807629543575636,-0.02611813626115712,0.11776093054619238,0.005681536611267052,0.012848436524471069,5.602243321442861,5.976612540471925,2.0984486164213156,0.3357317640771782,0.3160684024007523,0.06873831649311019,25.0,25.0,25.0,25.0,25.0,25.0,24.0,14.398,0.0,0.0,1.0,1781042423180513767
1781042423282176889,0.0004644507628878221,57.2763353838562,103.13614573591173,-0.0019788326612682613,-0.011554892928952376,-0.001240938063657035,-0.0030682233366829937,-0.009582780357028716,-0.0002270747192583269,-0.14694711850179573,-0.009396102392074744,0.0025891016238075576,5.196333504366176,5.868663060173785,3.4098401204241053,0.4251622582339612,0.32837490476584236,0.1742129497686924,25.0,25.0,25.0,25.0,25.0,25.0,24.0,15.403,0.0,0.0,1.0,1781042423264365904
1781042423383353247,0.0005055905354479568,57.27662145844481,103.13634197168469,-0.00214594698301068,-0.011561048156524218,-0.0012958457756700784,0.008086773644299288,0.006368669136790012,0.00228680063317858,-0.08991646302761407,0.009058265576475755,-0.018908705796547284,6.256263142341658,5.886844130395702,3.520680006712573,0.4354743817160008,0.31892310642181976,0.18503884940913495,25.0,25.0,25.0,25.0,25.0,25.0,24.0,16.603,0.0,0.0,1.0,1781042423363439908
1781042423482591177,0.0004677366159474336,57.27609152225651,103.13619955687656,-0.0015775623705712451,-0.011702590732775906,-0.0012352239246790383,0.0038474441580620385,0.005252824939407998,0.006698084116216164,0.13961584925361392,0.00027434585892605724,0.0011193442318002235,5.076204896861699,6.075296298615042,2.1978773423097704,0.33791749578626373,0.30185498654743953,0.07348234784868515,25.0,25.0,25.0,25.0,25.0,25.0,24.0,14.063,0.0,0.0,1.0,1781042423473221876
1781042423585057567,0.0005837027068336591,57.27690567052114,103.13664825633202,-0.0011086855041317796,-0.011605193634185523,-0.001431960426617459,0.005716758994644665,0.03300442583261884,0.012051908990527547,0.15397129373637114,0.009522189381593191,-0.002718113510536733,6.00825559484521,6.014118500369982,2.0744538705425875,0.32000819557470517,0.3050496318758865,0.060622847902863417,25.0,25.0,25.0,25.0,25.0,25.0,24.0,14.783,0.0,0.0,1.0,1781042423563874020
1781042423682098191,0.00044300315367814234,57.27645454579152,103.13637770228002,-0.0020304912599295503,-0.01176941965411809,-0.0012208269425829383,-0.007014325465538096,-0.01616467047412691,-0.006881273806093912,0.10257829273694496,-0.0046375683463094,0.014917189270528338,6.258086605512462,6.017538278826473,2.043100885889771,0.34096036426747933,0.3190783277882394,0.06639840129776221,25.0,25.0,25.0,25.0,25.0,25.0,24.0,15.045,0.0,0.0,1.0,1781042423663676969
1781042423784175273,0.0005100235651731722,57.276716507419344,103.13633836767696,-0.0019884456531234804,-0.011550023882891284,-0.00131907506291753,-0.0009486435961209808,0.012314500199121102,0.005187131932199428,-0.1690291457238817,-0.004540824205395651,-0.004915849877289791,6.362503595421626,5.83013264697053,3.514304987149452,0.457210930421498,0.33337036067983605,0.19300654313154048,25.0,25.0,25.0,25.0,25.0,25.0,24.0,16.691,0.0,0.0,1.0,1781042423780563511
1781042423881999849,0.0004609639145158008,57.276909038316035,103.13633076297232,-0.0025461311433952406,-0.011516515704154576,-0.001234866852593601,0.002339400944034656,0.061225780291128955,0.028169144091464225,-0.18609385037418769,-0.0022021796904831232,-0.0073108614027252,7.18185094394248,5.834847593527788,3.5410516133352363,0.481744503546442,0.3378678286069747,0.2070976600533826,25.0,25.0,25.0,25.0,25.0,25.0,24.0,17.584,0.0,0.0,1.0,1781042423870959352
1781042423981733311,0.0004655884469400574,57.276435540004584,103.136356911986,-0.0018366398914610425,-0.011724657509743656,-0.001264999576462168,0.007786957884156883,0.01853400620401741,0.01798927324564479,0.16973319319543986,-0.0022475349351306264,-0.0042019649135931906,6.030722035001744,6.071998999793418,2.1133006627068154,0.32633438179262875,0.30957808477639925,0.06288611421735683,25.0,25.0,25.0,25.0,25.0,25.0,24.0,14.915,0.0,0.0,1.0,1781042423980558548
1781042424082655800,0.0004703684762820702,57.276553539703656,103.13643137570207,-0.0017315199840660313,-0.011748440963352771,-0.0012249853663560911,-0.008422587365708143,-0.030022755540754065,-0.014437371448199983,0.10853137634203214,-0.0023919522498772514,0.013642031384009871,6.392970469667311,6.011302603522907,2.0284503477602596,0.3319359874353787,0.3229121416272704,0.062347771917148936,25.0,25.0,25.0,25.0,25.0,25.0,24.0,15.15,0.0,0.0,1.0,1781042424072951547
1781042424182243580,0.0005573874918015862,57.27652068278341,103.13643953560768,-0.0010193601026866636,-0.01162800374561892,-0.001403960882496862,-0.005974584820432903,-0.012932561659411503,-0.009817575945496645,0.112693092517793,-0.00007466911283984038,0.015787669541487345,6.379985907005408,5.964828387127806,2.0398878409063506,0.32960779398564133,0.32149812323645577,0.06138281956983415,25.0,25.0,25.0,25.0,25.0,25.0,24.0,15.097,0.0,0.0,1.0,1781042424167778575
1781042424281890943,0.00034026609984057736,57.27636545601931,103.13625785809305,-0.003269567003846388,-0.011850626919666648,-0.0010468061317696026,-0.002639310809714146,0.04561408587216798,0.02402424209163828,-0.20067619803732345,-0.012312683800801564,-0.0005938122467732228,6.590238355538652,5.817739698185219,3.5289882623763296,0.4555203904761812,0.3239167172414664,0.1935825354276582,25.0,25.0,25.0,25.0,25.0,25.0,24.0,16.91,0.0,0.0,1.0,1781042424280700328
1781042424385677813,0.0004379926165728629,57.2761002418452,103.13620716647355,-0.00237094429090406,-0.011833732908253212,-0.0013050372401675729,-0.004733487583592305,0.004643727068789484,0.0005082854723946988,-0.1820400978858887,-0.00872969878310246,0.0008105866464296161,6.2517231265211715,5.881095241263878,3.525182822321593,0.4379390935561403,0.31665643493403756,0.18592379825459887,25.0,25.0,25.0,25.0,25.0,25.0,24.0,16.599,0.0,0.0,1.0,1781042424373094967
1781042424482386124,0.0005477008889198645,57.27622182630984,103.13621317908758,-0.0013483788103503644,-0.011524390056637097,-0.001390760309448851,0.01445960309099453,0.05300739779955273,0.03245389090405395,-0.045985469497982726,0.003691657815562357,-0.02176219308770364,4.951530657868798,5.954788519925233,3.422206972064403,0.4169798680533539,0.3148748159933744,0.16968173569733414,25.0,25.0,25.0,25.0,25.0,25.0,24.0,15.23,0.0,0.0,1.0,1781042424468077299
1781042424585678034,0.0005287214155978988,57.27706051873439,103.13651537599276,-0.0021438700646579448,-0.011549699530139613,-0.001344672555787232,0.0005908813483885412,0.02811720629320804,0.013227672158881824,-0.153789810914895,-0.0024443164726636836,-0.007631129144012437,6.377578706510022,5.8326572597113415,3.523499745054223,0.44636083614907274,0.32093994678237653,0.1893463422999827,25.0,25.0,25.0,25.0,25.0,25.0,24.0,16.69,0.0,0.0,1.0,1781042424564075706
1781042424682354963,0.0004759741801683351,57.27667849357598,103.13634582459548,-0.0024472116916943883,-0.011593745303203165,-0.0013014083702166824,0.0020747979302757507,0.007883248414849383,0.004005017696799168,-0.12249108168337838,0.0020666847178643084,-0.011752693390600793,6.219493368017,5.837743055789543,3.509367993856564,0.43545139938091376,0.31817944247581986,0.18450589473328396,25.0,25.0,25.0,25.0,25.0,25.0,24.0,16.505,0.0,0.0,1.0,1781042424664387742
1781042424782174476,0.00045475033427227026,57.27650011897998,103.1365367377916,-0.001683767543137418,-0.011821069919886872,-0.001239105971772006,0.0051064395580279155,0.0015206839530856628,0.004020164835904376,0.1609034799415507,0.0032774223938145304,-0.0019679280801045275,5.601261258355397,6.078527803130962,2.169536466711209,0.3236307366842674,0.3084354676856165,0.06500289529619975,25.0,25.0,25.0,25.0,25.0,25.0,24.0,14.546,0.0,0.0,1.0,1781042424779751364
1781042424882602785,0.0004658814690952515,57.275762020912666,103.13599938567596,-0.0015481615366914666,-0.011835840132422112,-0.0013590724347551189,-0.010850636277732952,-0.016634131883721138,-0.011039205444124116,0.08842862584244301,0.003835876993889224,0.020820188337783273,6.328260266088233,5.955157725666661,2.0397873092420866,0.36042395461418913,0.3196218823246725,0.07092611681238478,25.0,25.0,25.0,25.0,25.0,25.0,24.0,15.074,0.0,0.0,1.0,1781042424872148942
1781042424982333422,0.0004028323605318006,57.275368184149,103.13580769956133,-0.002091510996724436,-0.011732080557453863,-0.0011834176648454395,-0.00099679217941934,0.009618826499241912,0.010462759775110572,-0.12900040383810735,-0.007274622251843714,0.002363293950003001,4.662135450165962,5.857353986452161,3.3473309064185144,0.425869021416436,0.3255802946992872,0.17029270831800505,25.0,25.0,25.0,25.0,25.0,25.0,24.0,14.789,0.0,0.0,1.0,1781042424959773043
1781042425081752707,0.00037680495097695447,57.27558790041642,103.13583689482492,-0.002840734259168863,-0.011988276350906263,-0.0012845441833907226,-0.00857494562325098,-0.18948125078393777,-0.11622854542752348,-0.14451395548976995,-0.02388648536775416,-0.021198010506596233,6.669373754328034,5.829911876711445,3.5437010251227647,0.4241331417311595,0.32014275854996593,0.1849599732262746,25.0,25.0,25.0,25.0,25.0,25.0,24.0,16.972,0.0,0.0,1.0,1781042425058550311
1781042425181897674,0.0003387486795511466,57.27564606696118,103.135837100016,-0.0020610096944544383,-0.011777329217006091,-0.0011511125225183248,-0.00015063520820057723,-0.014644411801402309,-0.0076524814193832304,0.159362329303347,0.007081275151616772,0.007362261250480856,5.981366149463377,6.005788276380078,2.128476871251634,0.3357023706727013,0.31393337127949744,0.06641630468255441,25.0,25.0,25.0,25.0,25.0,25.0,24.0,14.832,0.0,0.0,1.0,1781042425173423303
1781042425282488512,0.000442819689804251,57.27603309736568,103.1360399028308,-0.0015629594218647567,-0.011626428371723835,-0.001153835448393813,0.003989923434599516,0.013297824498714056,0.001470890250122694,0.1422283610123498,0.01096040604560716,-0.0004081307531538831,5.130421872094827,6.038896079752338,2.1733777531723915,0.3297303503325533,0.3070436513242638,0.07047178636629696,25.0,25.0,25.0,25.0,25.0,25.0,24.0,14.05,0.0,0.0,1.0,1781042425272307879
1781042425382387353,0.0004350417919511429,57.27575252854302,103.13610475202572,-0.0017922870973753854,-0.011836322509783012,-0.0012827148372735507,-0.005430737184254368,-0.007072287782645338,-0.007808508263282629,0.10396901493036724,0.004954237170938824,0.017274481564673105,6.063169297751953,5.95838673469983,2.0843068125010595,0.35074087723865727,0.31507865961588744,0.0702305247073834,25.0,25.0,25.0,25.0,25.0,25.0,24.0,14.842,0.0,0.0,1.0,1781042425365488469
1781042425484195063,0.0005403267285570421,57.27653927416986,103.13634524641756,-0.0016002579807278031,-0.011620457250138496,-0.001340689500322631,0.001578261763396942,0.034177252535231135,0.012357889176550134,-0.14822654347525013,-0.00008217371929571404,-0.00922072722553628,5.785729544138267,5.8338101077355695,3.457007706112596,0.4496340418878,0.33290016363518843,0.1863697658168622,25.0,25.0,25.0,25.0,25.0,25.0,24.0,16.045,0.0,0.0,1.0,1781042425472938998
1781042425581670929,0.0004794160209122456,57.27612038272532,103.1362227219585,-0.001476431376676152,-0.011766980017481755,-0.00135227675563366,-0.01128458738361143,-0.024986997600288857,-0.01180815837387914,0.0831435913038787,-0.0029014497674416315,0.020458505471805544,6.276645989192625,5.962865356397274,2.051991896271663,0.36004323081479206,0.3148236369579145,0.07127653441227051,25.0,25.0,25.0,25.0,25.0,25.0,24.0,15.038,0.0,0.0,1.0,1781042425580022532
1781042425682718469,0.00047120568861789647,57.27669012304693,103.13654897838109,-0.001568637619399003,-0.011753204020519294,-0.001298685621422786,-0.005168211483076706,-0.022552399427241496,-0.009383696675435172,0.11737714674126658,-0.003693761302679119,0.01384301410191575,6.0953104438152375,5.996400326365724,2.1136758118679912,0.3448105999973511,0.3171293680961523,0.06856448919878372,25.0,25.0,25.0,25.0,25.0,25.0,24.0,14.936,0.0,0.0,1.0,1781042425676157822
1781042425781657071,0.000572517852877026,57.27650829437692,103.1363557124098,-0.001441907246065723,-0.011573502865021294,-0.0014678994973535398,0.002269356728166163,0.025441293845405593,0.009543207399741384,-0.13838875613464652,0.0006338482843401324,-0.010042991509184637,6.300687136205834,5.929375479171075,3.5338091087910213,0.42871764236446225,0.30539917176536974,0.183216740371988,25.0,25.0,25.0,25.0,25.0,25.0,24.0,16.681,0.0,0.0,1.0,1781042425781260005
1781042425885695999,0.0005106390807018671,57.276405590678614,103.13646641798972,-0.0018171927023443912,-0.011783311137106034,-0.0013839618208139474,-0.0018719514064104977,0.01033542878622607,0.0020092772703038976,-0.15226615611565414,-0.0020353721309282528,-0.0065142651779169615,6.2656697191357615,5.879003043117219,3.481059508595765,0.4280032854754828,0.323094133078902,0.18282210670073457,25.0,25.0,25.0,25.0,25.0,25.0,24.0,16.56,0.0,0.0,1.0,1781042425874871389
1781042425982026432,0.0005425734117318588,57.276713115893095,103.13642289131673,-0.0014610129772272956,-0.011600857693462446,-0.0013786584107221176,0.014995545695345136,0.05321465993823282,0.023874013444053273,-0.06393650320596447,0.012376030592368435,-0.026724861087260677,6.011447434054382,5.889736912683829,3.4597070661808997,0.439607752578339,0.3249037805330064,0.18462762000195215,25.0,25.0,25.0,25.0,25.0,25.0,24.0,16.31,0.0,0.0,1.0,1781042425973336306
