timestamp_ns,joint_1_pos,joint_2_pos,joint_3_pos,joint_4_pos,joint_5_pos,joint_6_pos,joint_1_vel,joint_2_vel,joint_3_vel,joint_4_vel,joint_5_vel,joint_6_vel,joint_1_current,joint_2_current,joint_3_current,joint_4_current,joint_5_current,joint_6_current,joint_1_temp,joint_2_temp,joint_3_temp,joint_4_temp,joint_5_temp,joint_6_temp,bus_voltage,bus_current,accel_x,accel_y,accel_z,timestamp_ns
1781024400057583300,0.000360165117987634,57.290834620531236,103.13248137328404,0.0008381054764091871,-0.002511721502516302,-0.00014889846187475305,0.0006105044285889497,-0.0019742663084911564,-0.001326862510223915,0.007657558290296134,0.0015872115108491328,-0.0008035259155370133,0.013496870327281677,6.023283704347207,2.8571154381519865,0.3866037988304744,0.23052994369737775,0.12499819915424064,25.0,25.0,25.0,25.0,25.0,25.0,24.0,9.636,0.0,0.0,1.0,1781024400044872133
1781024400158341492,0.0003525896746548503,57.290874021867225,103.13250473340112,0.0007189034680696992,-0.002537242507286771,-0.0001376989989061785,-0.0006502576929302416,0.001592545645816996,0.0011159716802716076,-0.007569471822158864,-0.0014886618223658528,0.0008156226674697802,0.008891909437595122,6.028778513116693,2.8597711934921732,0.3856310556167923,0.22924167022853437,0.12473138210428349,25.0,25.0,25.0,25.0,25.0,25.0,24.0,9.637,0.0,0.0,1.0,1781024400155819030
1781024400255896692,0.00035718089671592067,57.29084558534603,103.13248769798456,0.0007890970979911565,-0.002520685309289039,-0.00014462508548089646,-0.0007475485582533674,0.002473380458690015,0.0016540892991021446,-0.009436963318201222,-0.0019439684194320775,0.000990978434033834,0.008564442166289961,6.028936880112445,2.8599180769806996,0.3856202771798174,0.2291900765063853,0.12473015652603908,25.0,25.0,25.0,25.0,25.0,25.0,24.0,9.637,0.0,0.0,1.0,1781024400234488330
1781024400356110819,0.00035884564845752525,57.29084236132772,103.1324857480037,0.0008052274810362209,-0.0025172685469745156,-0.0001464812875680707,-0.0007669110466798047,0.002593494599756393,0.0017459446984393857,-0.00988775117523222,-0.0020535174031429894,0.001030794452973228,0.008105386618463436,6.029540209261557,2.860210216536574,0.38550874152462133,0.2290349730088415,0.12469858971150297,25.0,25.0,25.0,25.0,25.0,25.0,24.0,9.637,0.0,0.0,1.0,1781024400352953246
1781024400456660716,0.0003589450398607606,57.29084462351563,103.13248707010332,0.0008017209655698221,-0.002517885562986524,-0.0001462769020814797,-0.0005539200738181707,0.001816674816018082,0.0012036341530342763,-0.006907791980120364,-0.0014212603875372355,0.000728145029076273,0.009365897954071115,6.027854337930456,2.8593989788229135,0.3858309838476042,0.22945950430629444,0.12479003585670356,25.0,25.0,25.0,25.0,25.0,25.0,24.0,9.637,0.0,0.0,1.0,1781024400442958350
1781024400556688815,0.000362796327122667,57.29083330121346,103.13247962028886,0.0008459348646641434,-0.002508818086483364,-0.00015107371961619074,0.0009215800416596692,-0.003022288764439232,-0.0019921263341369684,0.011454660933045629,0.0023482190272577177,-0.0012085252612790344,0.012964768007358168,6.023787012042002,2.857396581416945,0.3865463466790878,0.23040616869906663,0.12498454894428808,25.0,25.0,25.0,25.0,25.0,25.0,24.0,9.636,0.0,0.0,1.0,1781024400514126164
1781024400656225675,0.00035977055005132364,57.29084519534473,103.13248744595796,0.0008018401439712586,-0.002517771457005611,-0.00014667441413198718,-0.0005486754615556523,0.0017860376415184949,0.0011832696105214635,-0.006832221813772783,-0.0014042835790744192,0.000720130170316745,0.009372616351883084,6.027846014431277,2.859393060860362,0.38583360347970747,0.22946173409193568,0.1247908474251381,25.0,25.0,25.0,25.0,25.0,25.0,24.0,9.637,0.0,0.0,1.0,1781024400645277598
1781024400756562514,0.00036001180293345077,57.29084578679104,103.13248777562816,0.0007998962160723564,-0.002518033979032212,-0.0001466882618982666,-0.0006163659805982816,0.0020120521277023264,0.0013312730093698662,-0.007683747352877416,-0.001577829757371866,0.0008092993880773175,0.009246917993063616,6.028005694760584,2.8594713938173957,0.385804116883614,0.22942168532759105,0.12478259404718366,25.0,25.0,25.0,25.0,25.0,25.0,24.0,9.637,0.0,0.0,1.0,1781024400744530964
1781024400857556729,0.0003602769522039924,57.2908462329115,103.13248795767156,0.0007982711084611907,-0.0025181602854404393,-0.00014676699045551708,-0.0006877659204146467,0.0022618319905084476,0.0014935779517445112,-0.008620212688527652,-0.0017668533017594363,0.0009057873605456688,0.009327551330243556,6.028103201563887,2.859507230387597,0.38577267949430794,0.2293731225739292,0.1247714259458952,25.0,25.0,25.0,25.0,25.0,25.0,24.0,9.637,0.0,0.0,1.0,1781024400841553132
1781024400956781181,0.00036069309936823064,57.29084644169628,103.13248790455724,0.0007979056510815867,-0.0025179418515009935,-0.00014703874696081948,-0.0007718627913349676,0.002547109277856095,0.0016896336850820363,-0.009738253795573444,-0.0020009090825280577,0.0010206147124458876,0.008844628935826033,6.0286636033601795,2.8597827585539677,0.38567318273597334,0.2292394191284988,0.12474417368221752,25.0,25.0,25.0,25.0,25.0,25.0,24.0,9.637,0.0,0.0,1.0,1781024400953206612
1781024401056559897,0.00036077460741330017,57.290847889040855,103.13248846502373,0.0007935290669629761,-0.0025183560965251445,-0.0001469320201815581,-0.0007719000153603913,0.0025270088752485527,0.0016683454137107765,-0.009644881640872929,-0.001976004984596402,0.0010135262699880188,0.008902040046067313,6.0284406451895896,2.85968069394635,0.3857248287932736,0.22931146152477488,0.12476044331240067,25.0,25.0,25.0,25.0,25.0,25.0,24.0,9.637,0.0,0.0,1.0,1781024401041855093
1781024401156731218,0.00036401350011011185,57.29083876263551,103.13248206064829,0.000829299591620904,-0.0025105592682584175,-0.0001510279034276538,0.0005514534293768927,-0.0017574775020319918,-0.0012012689913556754,0.006901716704186549,0.0014483182888060952,-0.0007295128025400754,0.013510518601894946,6.023213199739619,2.857068372993473,0.386616735957276,0.23055024647572628,0.12500252507179768,25.0,25.0,25.0,25.0,25.0,25.0,24.0,9.636,0.0,0.0,1.0,1781024401126306004
1781024401256616573,0.0003640686586210665,57.29084060282689,103.13248264621616,0.0008237742229611883,-0.002510934783465393,-0.00015094707874937864,0.0004557869989584553,-0.0014361987189756452,-0.000998665542714692,0.005724487181523977,0.0012147562152032025,-0.0006059523863242898,0.013562889521898954,6.023167857317035,2.857035805036983,0.38661878853994014,0.2305610005229756,0.12500277934223436,25.0,25.0,25.0,25.0,25.0,25.0,24.0,9.636,0.0,0.0,1.0,1781024401237428641
1781024401355776171,0.0003618557667015049,57.29085046049962,103.13248812252624,0.0007882342974579525,-0.0025169963197372923,-0.00014796155220004204,-0.0007740510819297132,0.0025523676146576254,0.0016781634399712054,-0.009731667077234288,-0.0019849705612409916,0.0010173131801285956,0.009001572662888644,6.02842103791512,2.859657683511107,0.3857190468301784,0.22929847919791044,0.124757476604854,25.0,25.0,25.0,25.0,25.0,25.0,24.0,9.637,0.0,0.0,1.0,1781024401353186746
1781024401455882419,0.00036548782674580594,57.29084217391545,103.13248107762412,0.0008238473061572461,-0.002507912013003406,-0.00015272130745217256,0.0006886085881719367,-0.002192445718617797,-0.0014902114989797522,0.008548423659356982,0.0017903066334356828,-0.000909641876025813,0.013412643028158923,6.023247438427918,2.857080080535681,0.386617811105564,0.2305453338152675,0.12500393436185525,25.0,25.0,25.0,25.0,25.0,25.0,24.0,9.636,0.0,0.0,1.0,1781024401450374152
1781024401556361529,0.0003659195800151695,57.2908440525269,103.1324806795796,0.0008207111586532859,-0.0025067100856022316,-0.00015339220162686237,0.0007409708171384337,-0.0023558438722298108,-0.0015995637277417068,0.009174253265106656,0.0019209393161865528,-0.0009784838828315063,0.013364390512956703,6.0232677110715205,2.857090440225883,0.3866179557924088,0.23054123073088295,0.12500447857687402,25.0,25.0,25.0,25.0,25.0,25.0,24.0,9.636,0.0,0.0,1.0,1781024401549082114
1781024401656006421,0.0003631711118591371,57.29085590827535,103.13248697558936,0.0007793886533399926,-0.0025134710843567787,-0.00014993289076906954,-0.0005109936547383848,0.001680508981144798,0.001088393482543749,-0.006406533758177224,-0.0012879188084167245,0.0006627840715657216,0.009307801178637264,6.027746673676589,2.8593319369949346,0.3858604093409827,0.2294897139668042,0.12480036968016243,25.0,25.0,25.0,25.0,25.0,25.0,24.0,9.637,0.0,0.0,1.0,1781024401618128196
1781024401756266224,0.0003630551161777186,57.29086086847329,103.13248772834687,0.0007671221431895183,-0.002513190797716202,-0.00015007502480611555,-0.0006932271722729837,0.002286580420472084,0.0014810585473585807,-0.008703243418860081,-0.0017500737409510312,0.00090102913154088,0.0089281435946604,6.028194960330019,2.8595439336569677,0.3857774532266117,0.2293774150565374,0.12477739461862385,25.0,25.0,25.0,25.0,25.0,25.0,24.0,9.637,0.0,0.0,1.0,1781024401735940187
1781024401857575775,0.0003633260419755575,57.29086565133671,103.13248771523904,0.0007576540636639458,-0.002511634245847212,-0.00015083947368550705,-0.0007790767427577947,0.002587238396641085,0.0016747663869847492,-0.00984205539422575,-0.001976117683832362,0.0010152454627275335,0.008615599600465701,6.028537268438917,2.8597031233404375,0.3857130106528227,0.2292938399263755,0.12475979739728488,25.0,25.0,25.0,25.0,25.0,25.0,24.0,9.637,0.0,0.0,1.0,1781024401810809350
1781024401957555499,0.00036748939661725133,57.29086136653495,103.13247971304406,0.0007900304304820228,-0.002499372831962253,-0.00015699129424944595,0.0008511563067176612,-0.0026448357776521184,-0.00181751271285932,0.0104192972089463,0.002204257258036627,-0.00112640312036569,0.01318692286891688,6.023355439171988,2.8571374272104544,0.38661803875512335,0.230516958643535,0.1250065450655401,25.0,25.0,25.0,25.0,25.0,25.0,24.0,9.636,0.0,0.0,1.0,1781024401940450375
1781024402055933021,0.00036491317158279465,57.29087661305139,103.1324861561557,0.0007432997887518609,-0.0025049452820685874,-0.0001540491840288986,-0.0007883503614681202,0.0026702098367070264,0.0017350314216808842,-0.010231997545565398,-0.002048496368764592,0.0010387414280655365,0.007750007429250524,6.029495048306583,2.8601619575374664,0.38553954461345696,0.2290534880834857,0.12471245876439488,25.0,25.0,25.0,25.0,25.0,25.0,24.0,9.637,0.0,0.0,1.0,1781024402019576586
1781024402155920635,0.0003689191281983118,57.29087697321715,103.1324796173231,0.0007658789190306568,-0.002492736787073109,-0.00016019029542532336,0.0008901928892544826,-0.002739017137721141,-0.0018603057962790423,0.010762309496024932,0.002265936371771946,-0.001174257652737148,0.013328137803780404,6.023139495871421,2.856953519986603,0.386630937153358,0.23061307583345317,0.12501116216367048,25.0,25.0,25.0,25.0,25.0,25.0,24.0,9.636,0.0,0.0,1.0,1781024402144714548
1781024402256585368,0.0003520003673812951,57.290867406204235,103.13249460945656,0.0006806205342031875,-0.0025290859227063644,-0.0001384350144024176,-0.0006003579959438813,0.0013437219057454558,0.0010855451224366687,-0.006191373775770151,-0.001454713298526125,0.0007770121189935405,0.00931816997453165,6.028380864685702,2.859697208565956,0.3857070413442793,0.2293093918511515,0.1247519862170682,25.0,25.0,25.0,25.0,25.0,25.0,24.0,9.637,0.0,0.0,1.0,1781024402253040687
1781024402356187905,0.00036349785348377785,57.29086072107563,103.1324845319698,0.0008073628061205247,-0.002510609001118115,-0.00015087728397989112,0.001273561277055621,-0.00243613625395188,-0.0021812034701317023,0.012410754711697624,0.003313264963933357,-0.001683184444450193,0.01486226312925724,6.020742816139663,2.8547203690634677,0.3867307474131719,0.231593749919798,0.12504014155667048,25.0,25.0,25.0,25.0,25.0,25.0,24.0,9.634,0.0,0.0,1.0,1781024402351573330
1781024402455932006,0.00035283692645509117,57.29090527089849,103.13251460504328,0.0006543135329643531,-0.0025397587426172303,-0.0001358570207761012,-0.0006246039815999776,0.001815590776094793,0.0013943798132266597,-0.007305474083381442,-0.0015198186371299177,0.0008270355419608425,0.011914435974239922,6.024487789489158,2.8593854655349595,0.3867748914720373,0.23012505990681123,0.12506633842128773,25.0,25.0,25.0,25.0,25.0,25.0,24.0,9.638,0.0,0.0,1.0,1781024402436939400
1781024402555937483,0.0003523224963766669,57.290887818076115,103.13250675037015,0.0006748812268993057,-0.0025355654494020204,-0.0001365546374000056,0.0013076407169867288,-0.006476517404404883,-0.00394455459959962,0.0189543159737347,0.0038759259847425385,-0.0018851633255634376,0.011401658469390275,6.025831106133203,2.858677944778849,0.38638624111162045,0.22983421218640715,0.12494660469198356,25.0,25.0,25.0,25.0,25.0,25.0,24.0,9.637,0.0,0.0,1.0,1781024402539159856
1781024402658548960,0.0003530563146394928,57.2908709804255,103.13249903238182,0.0006970375090664319,-0.002531466343537678,-0.00013802951677085662,0.00018111947572428016,-0.0012590227908015968,-0.0006720182223811281,0.003054986089673529,0.0005934490969589763,-0.0002664353234883616,0.011413611182530072,6.026240334961429,2.858550385104609,0.38605247393416703,0.22983596608542256,0.12484404413821504,25.0,25.0,25.0,25.0,25.0,25.0,24.0,9.637,0.0,0.0,1.0,1781024402630295617
1781024402756512968,0.00035539195572046,57.290902237909165,103.1325130060028,0.0006677300273370778,-0.002537042228243879,-0.00013789753938734574,-0.0006515144333318225,0.0019060118344070792,0.0014480220671010534,-0.007749702106393488,-0.0015950176623722504,0.0008650071385361493,0.012181445762823751,6.02414979523973,2.859165771765859,0.3868070765643586,0.2302378324238869,0.12507511863514187,25.0,25.0,25.0,25.0,25.0,25.0,24.0,9.638,0.0,0.0,1.0,1781024402753415941
1781024402858542636,0.0003502141833930247,57.290901874840706,103.13251577215452,0.0006281277221908556,-0.002544796115675573,-0.0001324132277174059,0.0003124138007860961,-0.0031521819471611004,-0.001826470847749948,0.006888383104953085,0.0014443030950004496,-0.0006012626046363129,0.01134760616008168,6.02580433132347,2.858667984511402,0.38639147306739857,0.22984183755516596,0.12494879781751415,25.0,25.0,25.0,25.0,25.0,25.0,24.0,9.637,0.0,0.0,1.0,1781024402846105446
1781024402957791990,0.000349694176438556,57.29091544246992,103.13252298145947,0.0006043630238505343,-0.0025497733756804724,-0.0001306681947269824,-0.0006168114527702166,0.0005844195686871,0.0005694977836970456,-0.005300204886844551,-0.0010456945821368006,0.0006709050376754712,0.011420156565976648,6.025455675311527,2.8588178366449033,0.38646748416325394,0.22990231573970168,0.12497245105322748,25.0,25.0,25.0,25.0,25.0,25.0,24.0,9.637,0.0,0.0,1.0,1781024402941559613
1781024403058559477,0.0003549726879636574,57.29087572877936,103.13250083135136,0.0006950581581065641,-0.002531432836693966,-0.0001389982471149987,0.000486781071125346,-0.0025243934208270683,-0.0014655749019548687,0.007072517553339187,0.0014286600278192597,-0.0006854083794545101,0.012024359890985284,6.0257412913780835,2.8582943782570474,0.3861498688837652,0.22993033619336992,0.12486921154769869,25.0,25.0,25.0,25.0,25.0,25.0,24.0,9.637,0.0,0.0,1.0,1781024403032986528
1781024403156771452,0.0003502393453682485,57.290913460208515,103.13252261368812,0.0006053372853073846,-0.002549582861292971,-0.00013087254699093047,-0.0006330016245669244,0.00044496810756714265,0.0004662770286840238,-0.00522716310930888,-0.0010150726094458236,0.0006674330134862738,0.011372313126562854,6.025576117104324,2.858677502094252,0.3864295328837771,0.22988665651263415,0.12496084255592588,25.0,25.0,25.0,25.0,25.0,25.0,24.0,9.637,0.0,0.0,1.0,1781024403149322219
1781024403256655429,0.0003536762885694596,57.29088746436377,103.13250790366855,0.0006631375369069648,-0.002537655478965531,-0.00013632140357640687,0.0006026591278778273,-0.003767821823381932,-0.002180608363960125,0.009570870029809327,0.0019225456923545143,-0.0009155293076652828,0.009503412901801345,6.028395663784625,2.8598301952901353,0.3858713868956246,0.22921139671636967,0.1248000517340358,25.0,25.0,25.0,25.0,25.0,25.0,24.0,9.638,0.0,0.0,1.0,1781024403238391253
1781024403355727046,0.0003571552886170092,57.29086642146617,103.13249616375307,0.0007146613139541662,-0.0025273661492276325,-0.00014116131933064263,0.0007647240677999832,-0.0031907319145255244,-0.0019783249698276193,0.01043153051092805,0.0021364529794187887,-0.0010434338398002383,0.013959878730322691,6.023391479915341,2.8571214841557246,0.3865386999869472,0.2305192069794387,0.12497627061316402,25.0,25.0,25.0,25.0,25.0,25.0,24.0,9.637,0.0,0.0,1.0,1781024403355095234
1781024403455937944,0.0003571511943497604,57.29086939374824,103.13249779587464,0.0007123695650905244,-0.002528862454695011,-0.00014070693073651706,0.0009068141657435498,-0.0038611639332166497,-0.002366522203554939,0.012208712199689104,0.0025081504491632324,-0.0012397102618151034,0.01301033610551454,6.024613115092422,2.8577267380410247,0.3863490212689269,0.23020359182433064,0.12492389395837206,25.0,25.0,25.0,25.0,25.0,25.0,24.0,9.637,0.0,0.0,1.0,1781024403425388104
1781024403556411502,0.00035796173998068313,57.290903833776994,103.13251444074348,0.0006642072430028915,-0.002537789173968937,-0.0001386945207221768,-0.0006587674882424274,0.0018630105069003596,0.0014116650890132246,-0.0077775490164566355,-0.0015815766445242472,0.000864808427173696,0.012144812506706782,6.024193964159281,2.859192004321093,0.3868079395319804,0.2302249877475756,0.125075793396634,25.0,25.0,25.0,25.0,25.0,25.0,24.0,9.638,0.0,0.0,1.0,1781024403553985417
1781024403656290362,0.000354570289445361,57.29089415571669,103.13251161187024,0.0006544382057583588,-0.002540574694278864,-0.00013575781264190992,0.0009113348052057638,-0.004949003378896978,-0.0029925734091483924,0.013839841438356154,0.0028763440501952528,-0.0013636557498832612,0.011358816623538564,6.025783090196683,2.8587512407049687,0.3864157542934443,0.22984185511712868,0.12495660384479212,25.0,25.0,25.0,25.0,25.0,25.0,24.0,9.637,0.0,0.0,1.0,1781024403646833616
1781024403756058657,0.0003574409793332912,57.290871498181126,103.13249942496172,0.0006990957116281982,-0.0025305644529703577,-0.00014021383013570834,-0.000028511328881405476,-0.00048198155097004127,-0.0001699177600303649,0.00029885391891299904,0.00004018768907429317,0.00001336749102333103,0.01089203366182993,6.026720484981887,2.8588170379503386,0.38598341757584054,0.22972122347651977,0.12482691054181266,25.0,25.0,25.0,25.0,25.0,25.0,24.0,9.637,0.0,0.0,1.0,1781024403738685053
1781024403857551201,0.0003567763976701119,57.29087700147527,103.1325028996356,0.000684452992758279,-0.002533576853191231,-0.0001388952823922819,-0.0005125873155651058,0.001098691319184979,0.0008781908883138041,-0.005748785248985855,-0.0012035433195240865,0.0006507141154482986,0.00974197738421923,6.028118327358997,2.8594803965637148,0.3857307501390511,0.22938208592644616,0.1247567587278827,25.0,25.0,25.0,25.0,25.0,25.0,24.0,9.637,0.0,0.0,1.0,1781024403842148093
1781024403956626546,0.00035698122964232537,57.290889371589486,103.13250834475758,0.0006694309704187164,-0.0025361930673697243,-0.00013829009452789618,0.0005488117875433041,-0.003539224523879768,-0.002022268019953295,0.008757740456968617,0.0017670562584381356,-0.000839638938802524,0.009421622084218689,6.028413519276424,2.8598945160843665,0.3858847846000187,0.22919932609932095,0.12480505220854957,25.0,25.0,25.0,25.0,25.0,25.0,24.0,9.638,0.0,0.0,1.0,1781024403920066090
1781024404056352000,0.0003579941823412802,57.29087160516707,103.13250026935344,0.0006943666935158204,-0.0025314266692721956,-0.00014005532473277115,-0.0006332818018531622,0.0016160928556321994,0.001196179132329538,-0.007326622564570762,-0.0015325483509452003,0.0008129816982151955,0.009159148386098465,6.028509347819226,2.859728373672353,0.3856919590152588,0.22930107645024847,0.1247496676741178,25.0,25.0,25.0,25.0,25.0,25.0,24.0,9.637,0.0,0.0,1.0,1781024404044802607
1781024404155869365,0.000361607133711355,57.290865030222264,103.13249513578565,0.0007309214543347041,-0.002523983657744475,-0.0001442603298899321,0.0009062745398346215,-0.0036880615970607744,-0.002275823258748717,0.012052626929044788,0.002461083209759822,-0.001224416313898157,0.013211464348476134,6.024136856649569,2.857512847936047,0.3864368586419824,0.23034192591216657,0.12495058947419478,25.0,25.0,25.0,25.0,25.0,25.0,24.0,9.637,0.0,0.0,1.0,1781024404141008723
1781024404255841345,0.00036011269859099294,57.29087000857936,103.13249861511328,0.0007068807351514157,-0.0025285187780509726,-0.00014200079104285747,0.00039032739164733543,-0.0018612891597136296,-0.0011391750956875166,0.005725143783948071,0.0011962171652230918,-0.0005524056480374572,0.014170021046259564,6.023197418844731,2.857002156763847,0.38655780040560417,0.23056428309752883,0.12498070225166936,25.0,25.0,25.0,25.0,25.0,25.0,24.0,9.636,0.0,0.0,1.0,1781024404249784716
1781024404357451266,0.00036164140552222686,57.29086504235645,103.13249545407636,0.0007232011347354036,-0.002525152417764237,-0.00014383550672731737,0.000573421193919068,-0.0024930570890073353,-0.0015020470781709023,0.007824973952658744,0.001589472454738355,-0.0007815527776487123,0.012382077609181271,6.02500734345536,2.857963463577899,0.3862887198753848,0.23013424962858772,0.12491086645988056,25.0,25.0,25.0,25.0,25.0,25.0,24.0,9.637,0.0,0.0,1.0,1781024404334463297
1781024404455856346,0.00036267361741268466,57.290857868507885,103.13249215313992,0.0007361437351353728,-0.0025225620775651946,-0.00014500832029604583,0.0005965164756021299,-0.002356539908346237,-0.0014852428187709197,0.008071633936091236,0.0016610242433970502,-0.0008098960136061378,0.013923747568584508,6.023287864273039,2.857103351997181,0.3865737403372748,0.2305370457892945,0.1249875277950302,25.0,25.0,25.0,25.0,25.0,25.0,24.0,9.636,0.0,0.0,1.0,1781024404449859873
1781024404556341327,0.00035633479855743197,57.29090629458133,103.13251862123664,0.0006244504900428765,-0.0025450050997149584,-0.00013488576112688302,-0.00017637464696264316,-0.0013025501685279936,-0.0006557019436954813,0.0006031939304341175,0.00018561562806824924,0.000046960980943771975,0.011299137509175524,6.025725748848645,2.8587411242154523,0.3864366940563498,0.2298497621846816,0.12496372120284847,25.0,25.0,25.0,25.0,25.0,25.0,24.0,9.637,0.0,0.0,1.0,1781024404515204814
1781024404656063231,0.0003577870941763091,57.29090856521045,103.13252055973788,0.0006301597717550088,-0.0025458223194456064,-0.00013537075783138632,-0.0006543213462702051,0.0010587905364237017,0.0008276670956355274,-0.006387374990090435,-0.001217751158161345,0.0007424700925542908,0.011458779057386978,6.025310392285936,2.858749983261337,0.3865084163465534,0.22994924183989107,0.1249857190173162,25.0,25.0,25.0,25.0,25.0,25.0,24.0,9.637,0.0,0.0,1.0,1781024404629039330
1781024404757551041,0.00035917343777459415,57.29089240891448,103.13251052871212,0.0006579840733268818,-0.002538184985605861,-0.0001385005724224345,0.00016905627930218826,-0.0021558555426381583,-0.001124719121535128,0.0038324020043850313,0.0007631791985539591,-0.0003303544878843138,0.008744350909023868,6.029274266995529,2.860300839166411,0.38571824346241507,0.22898866439988208,0.12475833406715237,25.0,25.0,25.0,25.0,25.0,25.0,24.0,9.638,0.0,0.0,1.0,1781024404734825764
1781024404856204771,0.0003718371719884315,57.29085295224998,103.13248698318512,0.0008312677293652867,-0.0025142690129290523,-0.00015318840820296566,0.00027371910447498586,0.002085402666183665,0.0008456412785590445,-0.0034437705346176545,0.00001880288996856804,-0.00017605370564366672,0.0004642645850085666,6.03168830177693,2.863453067546007,0.3882564816853944,0.22238527213941167,0.12535108538205475,25.0,25.0,25.0,25.0,25.0,25.0,24.0,9.632,0.0,0.0,1.0,1781024404843586979
1781024404956626900,0.0003635459756901123,57.29085784108908,103.13249341291969,0.0007314423896806807,-0.0025238674154891873,-0.00014483029199462415,-0.0006778762077890024,0.002013751341613371,0.0014062886602352169,-0.008176935915911909,-0.0017023995071543691,0.000886317496765096,0.009304095083185962,6.028391151922736,2.8596676847671327,0.3857169959394933,0.2293018233471679,0.12475565029674078,25.0,25.0,25.0,25.0,25.0,25.0,24.0,9.637,0.0,0.0,1.0,1781024404941544355
1781024405056371074,0.00036217066360934227,57.290872557852026,103.13250078826046,0.0007008593659357031,-0.002530426998511543,-0.00014219761175715312,0.00016628276938004458,-0.0012624826285810495,-0.000683112634432904,0.002833857364887334,0.0005859162386257916,-0.00026199528529982944,0.010672781948321277,6.026731582787137,2.8587981420231063,0.38601391399440427,0.22975951268344483,0.1248395914233865,25.0,25.0,25.0,25.0,25.0,25.0,24.0,9.637,0.0,0.0,1.0,1781024405042786583
1781024405156000014,0.0003570424689029651,57.29091279440266,103.13252343355528,0.000608453994067952,-0.0025499495193865495,-0.00013356106119908882,-0.0006315518883949075,0.0005772296803650192,0.0005236334825004936,-0.005520535520468111,-0.0010163074711120926,0.000665999287973928,0.011369904901641102,6.025504449710822,2.85882973018792,0.3864897052704586,0.22989862686245444,0.12498038209306044,25.0,25.0,25.0,25.0,25.0,25.0,24.0,9.637,0.0,0.0,1.0,1781024405144580110
1781024405256682494,0.000362286852912702,57.2909097944237,103.1325194001257,0.0006462106959525891,-0.002540949705179014,-0.00013915949706329715,-0.0006749306014914867,0.0016739175654341685,0.0012547055279479452,-0.007461301326047083,-0.0015026109263387823,0.0008459879812421378,0.011598899878305842,6.025032595106423,2.8589901051270266,0.3866177082399897,0.2300039837414046,0.12501930888661508,25.0,25.0,25.0,25.0,25.0,25.0,24.0,9.637,0.0,0.0,1.0,1781024405231956549
1781024405359220256,0.0003724028093133359,57.290877021719886,103.13249772205933,0.0007721050043995725,-0.0025180955181172814,-0.00015183297688260426,-0.0007653478007349783,0.0024969614821840637,0.0019100459634221472,-0.01111983129396314,-0.0021902378210713366,0.0011130672579013935,0.06716095256823591,6.026456500482955,2.8574960859660767,0.38393310170133066,0.22997436452211217,0.12381599237821454,25.0,25.0,25.0,25.0,25.0,25.0,24.0,9.689,0.0,0.0,1.0,1781024405345505691
1781024405458545616,0.0003645312736186119,57.29085935727476,103.13249453569163,0.0007247157488573914,-0.002525332277232819,-0.00014471883150576147,-0.0005165951463156908,0.0014479163338709108,0.0010334734828966847,-0.006121141804380129,-0.0012696902501694732,0.0006672964931010278,0.009371795468961249,6.028127909555309,2.85954394731778,0.3857760984238596,0.22939555713972976,0.12477461460200712,25.0,25.0,25.0,25.0,25.0,25.0,24.0,9.637,0.0,0.0,1.0,1781024405423581770
1781024405555926373,0.0003681402836351062,57.29084959767568,103.1324879782844,0.0007624323832441934,-0.002517065141045182,-0.00014913858588657205,0.0003994205648902784,-0.001561208363073546,-0.00095384252707375,0.005286308385855115,0.001066487081090517,-0.0005332867455886444,0.011960656145706634,6.025322691515781,2.85814108744322,0.386256028417008,0.23004900459098873,0.12490380098792556,25.0,25.0,25.0,25.0,25.0,25.0,24.0,9.637,0.0,0.0,1.0,1781024405547637008
1781024405656538632,0.00036437130481784994,57.29086849065576,103.13249938895284,0.0007047088989444266,-0.002529402415645608,-0.00014341898846227677,-0.0006688577428151636,0.0018539562459110317,0.001357507075741174,-0.008200490803463849,-0.0017042758292876935,0.0008793081000804733,0.008214464614590156,6.029688650724466,2.860280924163479,0.3854711019995508,0.2290124645998761,0.12468813458953051,25.0,25.0,25.0,25.0,25.0,25.0,24.0,9.637,0.0,0.0,1.0,1781024405632563268
1781024405757541733,0.0003627282645066947,57.29088820084646,103.1325092674106,0.0006632399618076807,-0.002536889439016843,-0.00014037730151351865,-0.0006357015856089135,0.0010034826184539178,0.0009140984602059542,-0.0070224458575346435,-0.0014723610629726117,0.000783344584206339,0.007399193945890011,6.031230672415956,2.861107171554432,0.3852688958283078,0.22851806570912445,0.12462811808342576,25.0,25.0,25.0,25.0,25.0,25.0,24.0,9.638,0.0,0.0,1.0,1781024405731521454
1781024405856215946,0.0003712850118192743,57.29083898036464,103.13248231505644,0.0007942352310056158,-0.002510748982867998,-0.00015253993604090056,0.0008514691080196052,-0.0028865453029709724,-0.0018757778021767217,0.010827895877342723,0.002213428318675119,-0.0011228448567933702,0.01373110629167459,6.023300357403717,2.8571284234026626,0.3866078277504746,0.2305288692397204,0.12499969372342132,25.0,25.0,25.0,25.0,25.0,25.0,24.0,9.636,0.0,0.0,1.0,1781024405844069883
1781024405957578695,0.00037021382042876614,57.290846947540125,103.1324864958818,0.0007721324301565607,-0.002515327756119628,-0.00015060976487634513,0.0011063283412579136,-0.003911144725957166,-0.0025067641854010446,0.014104850170779186,0.0028889064233472953,-0.0014665509397022028,0.013609902158650603,6.023464709105855,2.8572116874547304,0.3865796605518513,0.23050060205631653,0.12499230621357288,25.0,25.0,25.0,25.0,25.0,25.0,24.0,9.636,0.0,0.0,1.0,1781024405946512176
1781024406057698771,0.00035884609402391914,57.29091082311089,103.13252375040123,0.0005979250169219676,-0.0025512749035427563,-0.00013362496140519658,-0.0006408729691277374,0.0002453612706711468,0.000284324837201085,-0.005061986810699983,-0.000901971571618385,0.0006296992427047022,0.011307282213244134,6.025746137131311,2.8586399626075827,0.38642626401759256,0.22985744013942247,0.12496083063503945,25.0,25.0,25.0,25.0,25.0,25.0,24.0,9.637,0.0,0.0,1.0,1781024406030800217
1781024406156434228,0.0003604337067403228,57.29090938929962,103.13252219805118,0.0006107563753979453,-0.0025487007082624583,-0.0001352167379452247,-0.000656471601467398,0.0004492773646349674,0.00042647839295609024,-0.0055032414489248095,-0.0009990596699383618,0.0006685356863189299,0.011297600341624496,6.025658284216482,2.858710201064823,0.38645774077739115,0.22987063306727903,0.12497086680172192,25.0,25.0,25.0,25.0,25.0,25.0,24.0,9.637,0.0,0.0,1.0,1781024406152150334
1781024406258573443,0.00037637432770546976,57.29087608432824,103.13249761761024,0.0007807901500196905,-0.0025164503605066943,-0.00015404970284710887,-0.0007926741387899154,0.002504728454033959,0.001919415798309991,-0.011498911284160654,-0.002252848629204894,0.0011449340307152353,0.06684225337980598,6.026914636660749,2.8577295468513784,0.3838515387945432,0.2298557388365084,0.12379304580193752,25.0,25.0,25.0,25.0,25.0,25.0,24.0,9.689,0.0,0.0,1.0,1781024406228998294
1781024406356193718,0.0003719639108417969,57.29084347850952,103.13248528841532,0.0007791406113591614,-0.0025138184145199415,-0.00015174566553182586,0.0005895967244774763,-0.0020002480664020497,-0.001313297052331184,0.007582715792553336,0.001571962256963003,-0.0007830021798648672,0.013928124841810892,6.023132623395433,2.857015591006162,0.3866164792445634,0.23057458987814428,0.12500106907878258,25.0,25.0,25.0,25.0,25.0,25.0,24.0,9.636,0.0,0.0,1.0,1781024406347396077
1781024406455950348,0.00036824834643707136,57.29086219051449,103.13249600704148,0.0007213009671227027,-0.0025254686862901644,-0.00014629351815401663,-0.0002755344172322896,0.0006088479387846141,0.0004843682969285584,-0.0031302923054241584,-0.0006415680429248864,0.00034854234159329437,0.010259216298393084,6.027298532361936,2.8591147145268265,0.3859041546375528,0.2295804672563481,0.12480752526923676,25.0,25.0,25.0,25.0,25.0,25.0,24.0,9.637,0.0,0.0,1.0,1781024406442593536
1781024406557492524,0.00036801763397274593,57.290902857538754,103.132516808017,0.0006654326523221206,-0.0025383434109997726,-0.00014243569513284696,-0.0007124765813048808,0.0018790561335994603,0.0013515063383858167,-0.008224836893175717,-0.0015915954009845291,0.0008917032133457965,0.011723396431149904,6.024777599414569,2.858847311746428,0.38666111716231943,0.23009267211769785,0.12503294901636627,25.0,25.0,25.0,25.0,25.0,25.0,24.0,9.637,0.0,0.0,1.0,1781024406519294305
1781024406655703024,0.000372907060007295,57.29089159296624,103.13250940904908,0.0007151405970530743,-0.0025288715803867953,-0.00014798001546668225,-0.000788411155185974,0.0022069893182805225,0.001577169470427439,-0.009689106194026366,-0.0018444459297016172,0.001012450267910527,0.012612541295736886,6.023463313906451,2.858736921779281,0.3869120546836893,0.23047338493700972,0.125107142269802,25.0,25.0,25.0,25.0,25.0,25.0,24.0,9.637,0.0,0.0,1.0,1781024406654579736
1781024406758539486,0.0003711081826251534,57.29085095080416,103.13249059994588,0.0007496218064438712,-0.0025196655556508456,-0.00014934535937684813,-0.0007526720124382824,0.0024175189855577196,0.0016380739833544743,-0.009345638452784523,-0.0019328436085073776,0.0009932980490811785,0.008945405833938673,6.0287270619694,2.859826288522574,0.3856673967930177,0.229221881749857,0.12474328223793278,25.0,25.0,25.0,25.0,25.0,25.0,24.0,9.637,0.0,0.0,1.0,1781024406746512962
1781024406855937913,0.0003678092493736097,57.29087467384505,103.13250334420336,0.0006968650301708988,-0.0025322160843075543,-0.00014392915779405045,-0.0001753674791941034,0.00002115567386586193,0.00013196011362237405,-0.001824328790792128,-0.0003153623314173222,0.00019567113602675276,0.010346508924418948,6.02749886132215,2.859138493857861,0.3858529845324728,0.22952465873574204,0.12479076562498118,25.0,25.0,25.0,25.0,25.0,25.0,24.0,9.637,0.0,0.0,1.0,1781024406821004932
1781024406958883074,0.0003693615766173122,57.29088360523664,103.13250610066392,0.0006932601058863561,-0.0025312800069778765,-0.00014505448694668012,0.0015208740765112348,-0.006810818560107103,-0.004218871314266592,0.02100825792284673,0.004341299816947293,-0.0021504413489563277,0.011415337494925456,6.0258143887397075,2.8586674065523976,0.38642502194043865,0.2298359627758491,0.12495963883595562,25.0,25.0,25.0,25.0,25.0,25.0,24.0,9.637,0.0,0.0,1.0,1781024406937523106
1781024407055966735,0.00037369173325457744,57.29084615502433,103.13248811113532,0.0007697560409900707,-0.0025156069625276857,-0.00015178965265737182,-0.0006272292416043768,0.0020497759556518907,0.001375543469176909,-0.007769075820881494,-0.0016098920698965889,0.0008269882304513215,0.009237673603075897,6.028171920544215,2.85956281651164,0.38578641490456816,0.22937817406678887,0.1247788932768214,25.0,25.0,25.0,25.0,25.0,25.0,24.0,9.637,0.0,0.0,1.0,1781024407043148465
1781024407157244258,0.0003692896050065103,57.29087563622856,103.13250336104994,0.0006938860882640994,-0.0025308923344127317,-0.0001450156267558526,-0.00017085366896654646,-0.00008661973553607416,0.00007418997408314313,-0.0015619661907739512,-0.00029772561780551366,0.00018730449449734363,0.010417640739595047,6.027454120665902,2.859105426999499,0.3858583472958995,0.2295331744739792,0.12479177865566538,25.0,25.0,25.0,25.0,25.0,25.0,24.0,9.637,0.0,0.0,1.0,1781024407124856270
1781024407258565147,0.00037698001136236375,57.29088765895492,103.13250595083238,0.0007394530081834095,-0.0025237830456395142,-0.000151515665369212,-0.0008222453936313933,0.0023311908716510173,0.0016771040281336254,-0.010499239515267392,-0.00197898000318321,0.0010776354411934318,0.014083943732319748,6.022073475068904,2.859163828251295,0.3872078506623348,0.2307590297206402,0.1251883487162874,25.0,25.0,25.0,25.0,25.0,25.0,24.0,9.638,0.0,0.0,1.0,1781024407248104896
1781024407355854074,0.0003741332462372686,57.29084994421786,103.13248979176704,0.0007569976633990795,-0.002517698409546602,-0.00015137976583523704,-0.0007661647917744821,0.002461777947804602,0.0016974858822547104,-0.00971474786360744,-0.002023310163342703,0.0010234538503980145,0.007958303501545451,6.029847411670076,2.8603800671571022,0.3854724463855379,0.2289529337433634,0.12469023025771143,25.0,25.0,25.0,25.0,25.0,25.0,24.0,9.637,0.0,0.0,1.0,1781024407347584088
1781024407455694703,0.00036841863932478226,57.29090802700598,103.13252090711896,0.0006383648918852259,-0.002542904356818701,-0.00014074909537357668,-0.0007119147975791414,0.0009940973013946124,0.0007778383243095755,-0.006861984211490123,-0.0012736512525531368,0.00078523609898913,0.011430822011101714,6.025334884698014,2.858764041252633,0.3865334862094612,0.2299424867703778,0.12499428744602148,25.0,25.0,25.0,25.0,25.0,25.0,24.0,9.637,0.0,0.0,1.0,1781024407453279866
1781024407555894324,0.0003776699310277995,57.2908405988256,103.1324837865044,0.0007934814638224685,-0.0025100344514129114,-0.00015548164047174892,0.0006377930564624864,-0.002089397295893468,-0.0013848412571884107,0.008081783574008657,0.001672644853235278,-0.0008420546438530687,0.013886862988180732,6.023113664184392,2.8570110365074135,0.38663407059207544,0.23057713736681257,0.1250070679212386,25.0,25.0,25.0,25.0,25.0,25.0,24.0,9.636,0.0,0.0,1.0,1781024407553600689
1781024407655839787,0.0003772568826238761,57.29088441882146,103.13250596279867,0.0007408009834044822,-0.0025261263701494103,-0.00015074603513763328,-0.0008004623460986271,0.002424240811927587,0.0016783948839801425,-0.010558463507396178,-0.001911484843640262,0.0010488490447136411,0.014343192895984286,6.02154925550367,2.8586753979842063,0.38723203774942416,0.23097549983113091,0.1251959922718809,25.0,25.0,25.0,25.0,25.0,25.0,24.0,9.638,0.0,0.0,1.0,1781024407638210908
1781024407757648026,0.0003776451529044532,57.290844936554066,103.13248596911018,0.0007852833839230275,-0.0025123364822358107,-0.0001547552826939146,0.001083720738403935,-0.003680090186759245,-0.002380929322899775,0.013591829727012112,0.002799025101217442,-0.0014289304571977364,0.0135632459157043,6.023435279356882,2.857193411306888,0.3865954898158992,0.23051136260564015,0.1249980819064096,25.0,25.0,25.0,25.0,25.0,25.0,24.0,9.636,0.0,0.0,1.0,1781024407724021038
1781024407857622358,0.000366038422860369,57.29091017611351,103.13252366422093,0.0006052072808130003,-0.0025488615936181173,-0.00013743737227575107,-0.0005876267313141337,0.00007252479573323115,0.00016509640714562675,-0.004441286694386932,-0.0007679349468674475,0.000557167703198366,0.011333926090915191,6.025757994547243,2.858647318952981,0.3864409489840592,0.22985043729215188,0.12496550804807656,25.0,25.0,25.0,25.0,25.0,25.0,24.0,9.637,0.0,0.0,1.0,1781024407845584376
1781024407956313114,0.0003800778454426211,57.29083613423048,103.13248108625228,0.0008075523693945985,-0.00250688986639963,-0.00015758576606231267,0.0010101561538056654,-0.003288180505572682,-0.0021560153166025157,0.01260207582347114,0.0025791326114956025,-0.001323221446141167,0.01372167224873315,6.02322162656074,2.857077556270737,0.3866333467277121,0.2305564363486177,0.12500839153618645,25.0,25.0,25.0,25.0,25.0,25.0,24.0,9.636,0.0,0.0,1.0,1781024407940548124
1781024408056242398,0.00038067886133723777,57.29087966770609,103.13250260399704,0.0007695901997862652,-0.002521443453313649,-0.00015395662024533812,-0.000801063640451461,0.0025676859571043867,0.001776229409285738,-0.011396645794481438,-0.0020355355597314493,0.001107938718215297,0.07094423280828119,6.0220184230434,2.8546188826358794,0.38449799944220087,0.2312623275344559,0.12396849661810516,25.0,25.0,25.0,25.0,25.0,25.0,24.0,9.687,0.0,0.0,1.0,1781024408048167944
1781024408155980944,0.00037635482942723433,57.290853669121915,103.13249233541522,0.0007509276094530947,-0.0025190616031015908,-0.0001518117442149243,-0.0006711582591115824,0.002089176046825105,0.0014153931514523273,-0.008268539763427209,-0.0016895397873129478,0.0008750575659089541,0.009092301631631008,6.0283793696131385,2.859661709511505,0.3857502341614149,0.2293293529907424,0.12476909508764972,25.0,25.0,25.0,25.0,25.0,25.0,24.0,9.637,0.0,0.0,1.0,1781024408139446022
1781024408255840464,0.0003787109991389249,57.29088778059541,103.1325082657142,0.0007329400686268956,-0.0025277282974710963,-0.00015075783908416593,-0.0008018269544780955,0.002329464490694963,0.0016146408940877525,-0.010415135002076538,-0.0018739446192443609,0.001037434129331491,0.014089046185009044,6.021733809842803,2.858796509453642,0.38722889526573456,0.23093753221312316,0.1251973787180102,25.0,25.0,25.0,25.0,25.0,25.0,24.0,9.638,0.0,0.0,1.0,1781024408233413721
1781024408356539467,0.0003779225583569871,57.290850341581255,103.13249042867972,0.0007608165463488766,-0.0025169310659144194,-0.00015324173632385072,-0.0007778289257468245,0.0025075443383453973,0.0017198403317789403,-0.00992221451631745,-0.0020512194422993985,0.0010378584687184122,0.007914866599386597,6.02986832139975,2.86038354110397,0.3854713509169712,0.22895317319364225,0.1246905901171235,25.0,25.0,25.0,25.0,25.0,25.0,24.0,9.637,0.0,0.0,1.0,1781024408350331939
1781024408456526056,0.0003858020506692691,57.290841819770286,103.13248326209924,0.0008737062859593101,-0.002508209699253867,-0.00016083582746452866,0.0007100493093644668,0.0014677393533928905,0.00038262859519323686,0.012888322357168485,-0.0007789821968041539,-0.00035434515991753993,0.04711385400207108,6.034548492441272,2.8587228863543435,0.3831078980131468,0.23367656623796948,0.12457985497806816,25.0,25.0,25.0,25.0,25.0,25.0,24.0,9.682,0.0,0.0,1.0,1781024408442816571
1781024408557539233,0.0003771330298030283,57.29085709988169,103.1324941783936,0.0007413075547532531,-0.002520858388819679,-0.00015155037252552998,-0.0006009685649130863,0.0018008687392773216,0.0012352556000341025,-0.007352926974502228,-0.0014935815695315178,0.0007778578715467992,0.009194527460931318,6.0282710789265535,2.8596060046116953,0.3857693436832816,0.22935961777468072,0.12477452787395855,25.0,25.0,25.0,25.0,25.0,25.0,24.0,9.637,0.0,0.0,1.0,1781024408543531674
1781024408656264215,0.00038369618910351463,57.290834506611354,103.13248056332858,0.0008222725528739456,-0.0025040977805518057,-0.00016005936376303325,0.001056910556608262,-0.0033993180808386484,-0.002232534630021124,0.01309929300312992,0.00267554836325153,-0.001380264276383819,0.013493870711137406,6.023431161290978,2.857206309343243,0.38661812851473143,0.2304977220493304,0.12500532348553825,25.0,25.0,25.0,25.0,25.0,25.0,24.0,9.636,0.0,0.0,1.0,1781024408613868360
1781024408756018006,0.0003774030156545821,57.29086329566089,103.13249684295512,0.0007314743159834525,-0.002523133944721027,-0.00015102162898330944,0.00030548888402506265,-0.0013440335937170646,-0.0008071089984059979,0.004025453755040055,0.0008651849589522307,-0.00042325566765255817,0.011566039262711832,6.025847008012306,2.8583752731946217,0.38616727593290023,0.22993020743486065,0.12488013728216343,25.0,25.0,25.0,25.0,25.0,25.0,24.0,9.637,0.0,0.0,1.0,1781024408751791787
1781024408857566457,0.0003843851680201829,57.29083475293832,103.1324805383833,0.0008203804279513071,-0.002504067962656706,-0.00016039459745138517,0.0010837055799777448,-0.003481814440783276,-0.0022894171202818988,0.013432161618845704,0.0027467715503612347,-0.001416173600213891,0.013630853758643646,6.023275418637938,2.857123791140142,0.3866432681443144,0.23053658128530383,0.12501220612325986,25.0,25.0,25.0,25.0,25.0,25.0,24.0,9.636,0.0,0.0,1.0,1781024408851200823
1781024408956358680,0.0003816492875290154,57.2908460781801,103.1324883706756,0.0007824891558377519,-0.0025120783861251206,-0.0001564155570375508,-0.0005287856399973894,0.0017108989649247688,0.0011398932000927734,-0.006555017037980623,-0.0013516897285111083,0.0006942548457484841,0.009450142143173884,6.027865661903055,2.8594096744131576,0.3858549953057778,0.22945626388935184,0.1247991803784739,25.0,25.0,25.0,25.0,25.0,25.0,24.0,9.637,0.0,0.0,1.0,1781024408923293024
1781024409059841076,0.0003767094407155781,57.29088227779569,103.13250695416616,0.0006992628652167026,-0.002530639154850227,-0.00014825674497296674,0.0014536431782303206,-0.006285106633682768,-0.0039286945604105165,0.01979560148030999,0.004125840341910281,-0.0020510465983945595,0.011431207159545308,6.025766851111176,2.858641901999865,0.3864493846433756,0.22984855055231895,0.12496763774909812,25.0,25.0,25.0,25.0,25.0,25.0,24.0,9.637,0.0,0.0,1.0,1781024409048972750
1781024409156069963,0.0003803113929016856,57.290852009550775,103.13249137254256,0.0007553757222126989,-0.002517286683820586,-0.00015414275380788218,-0.0007811021518735934,0.0024921374088503452,0.0017012290524217495,-0.009884935813960756,-0.0020352903266967915,0.0010351006130001048,0.008150735951445099,6.02960495524567,2.860255738241186,0.3855236440012557,0.22901268262286437,0.12470518091501356,25.0,25.0,25.0,25.0,25.0,25.0,24.0,9.637,0.0,0.0,1.0,1781024409143433766
1781024409256705262,0.0003827690808604997,57.29084551463963,103.13248798006546,0.0007821233566195929,-0.002511805491529696,-0.000157051796376231,-0.0008257514305495185,0.002718820068090982,0.001832152775898526,-0.010535008246612076,-0.002180697188810553,0.0011022743159057435,0.0080340774476383,6.0296784299782855,2.8602888387158,0.3855148553240906,0.22899504309659963,0.1247032442535188,25.0,25.0,25.0,25.0,25.0,25.0,24.0,9.637,0.0,0.0,1.0,1781024409234815727
1781024409356589598,0.00038324912507811,57.29084690485699,103.1324890512582,0.000783165978512632,-0.0025118525675286905,-0.00015721293075353536,-0.0008312594097453339,0.0027024257156185315,0.0018091909111182232,-0.01049154303415913,-0.002164350675779022,0.0011019945478469282,0.00842043195109072,6.029250309933538,2.8600827273247353,0.38559597092995346,0.22909251809070957,0.12472542829592471,25.0,25.0,25.0,25.0,25.0,25.0,24.0,9.637,0.0,0.0,1.0,1781024409325691981
1781024409455818053,0.000383834692040429,57.2908469037715,103.13248925447635,0.0007858742386861766,-0.002511592832864119,-0.00015751838981096423,-0.0008348593349435585,0.002702540623011028,0.0018127294468391968,-0.01054640053795308,-0.002177110235462963,0.0011075350099399766,0.008318568799250985,6.0293719456732555,2.860143004241174,0.3855751964029609,0.22906322648022295,0.12471973155289776,25.0,25.0,25.0,25.0,25.0,25.0,24.0,9.637,0.0,0.0,1.0,1781024409438985085
1781024409558636321,0.0003830244023582131,57.29084946048699,103.13248907447009,0.0007693501919743209,-0.0025140180994707353,-0.00015643280897773134,0.0004853851771467164,-0.001644377163948362,-0.0010998295762015906,0.006225732149838131,0.0013280420384798825,-0.0006532623364950708,0.014032897377525383,6.02298408846482,2.85692380757999,0.3866471179362512,0.2306148944934865,0.12501064516530208,25.0,25.0,25.0,25.0,25.0,25.0,24.0,9.636,0.0,0.0,1.0,1781024409545748213
1781024409655930308,0.00038311495948047976,57.290848287536754,103.13248938742286,0.0007690102808228331,-0.0025137854424781463,-0.00015652702534578935,-0.0008160336359674164,0.0026525007368852884,0.0017753972135040666,-0.010250397489031402,-0.002108743042921161,0.0010766076404429264,0.008464663811596858,6.029113462363104,2.8600163058515577,0.3856245290684647,0.22913991718588425,0.12473457482489164,25.0,25.0,25.0,25.0,25.0,25.0,24.0,9.637,0.0,0.0,1.0,1781024409625716589
1781024409759545053,0.00038431822996820586,57.29084764968657,103.13248904978218,0.000778516962876987,-0.002511825902133352,-0.00015773071075344478,-0.0006174954870035702,0.0019884866571687966,0.0013195584069288304,-0.007661528146300793,-0.0015727001961659453,0.0008084626733585922,0.009268973840375368,6.028078562391493,2.859509184721121,0.38581862721747834,0.22940313565425435,0.12478936610378888,25.0,25.0,25.0,25.0,25.0,25.0,24.0,9.637,0.0,0.0,1.0,1781024409750041207
1781024409856399431,0.0003872989969356907,57.290841052998715,103.13248465777708,0.0008086273477257424,-0.002505665238507651,-0.00016115336829533995,0.0004349481463628778,-0.0013409246498050926,-0.0009347129180568814,0.005476015463423329,0.001156256509377871,-0.0005753592136371327,0.01402310086542786,6.022902911901342,2.8568835832938424,0.3866738199129176,0.23063020931837053,0.1250188046193456,25.0,25.0,25.0,25.0,25.0,25.0,24.0,9.636,0.0,0.0,1.0,1781024409852017706
1781024409956498798,0.000387675557392701,57.290841339737774,103.13248483674796,0.000808644459460091,-0.00250561808864105,-0.00016133455842964927,0.0004260801266802356,-0.0013160220896073927,-0.0009190645124238518,0.005370213630076402,0.001135753221442825,-0.0005642602612178612,0.014029219295886524,6.02289557340331,2.8568791659499486,0.3866751339080239,0.23063217245883696,0.12501918985246005,25.0,25.0,25.0,25.0,25.0,25.0,24.0,9.636,0.0,0.0,1.0,1781024409941100757
1781024410055855772,0.0003887566432036428,57.290839029748454,103.13248330458336,0.0008177316244754346,-0.0025036847363091217,-0.00016247920327775874,0.0006956346687730488,-0.0021913199253038047,-0.0014783025338442662,0.008650550686128937,0.001792094900303149,-0.0009125262878743664,0.013893158190896829,6.023002697855157,2.85694663499103,0.3866710805034461,0.23060794531217385,0.12501909850027612,25.0,25.0,25.0,25.0,25.0,25.0,24.0,9.636,0.0,0.0,1.0,1781024410032046062
1781024410156542620,0.0003892012202144721,57.2908387940866,103.1324830939023,0.00081873276205367,-0.0025033365397158207,-0.00016280166706299858,0.0007426789878806429,-0.002348053034131701,-0.0015781622788158926,0.009230808434921543,0.001908150728687475,-0.0009741121285604716,0.013840264699038148,6.023053490353369,2.8569829394825677,0.38666927311143984,0.23059221218064177,0.12501890263292695,25.0,25.0,25.0,25.0,25.0,25.0,24.0,9.636,0.0,0.0,1.0,1781024410147151337
1781024410258544820,0.000389865793554007,57.290837795992566,103.13248235216986,0.0008224534561892086,-0.00250238188476472,-0.00016343969612495085,0.0008757046771726114,-0.002779379760600169,-0.0018539106717257987,0.010850570464802384,0.00223233545702376,-0.0011462601018630346,0.01376107854911502,6.023118393635067,2.8570255006566376,0.3866669335623356,0.23057592823017073,0.12501883094611507,25.0,25.0,25.0,25.0,25.0,25.0,24.0,9.636,0.0,0.0,1.0,1781024410233784420
1781024410358553653,0.00039072255826303474,57.29083617036552,103.13248116276972,0.000828516108241369,-0.0025008984324366096,-0.0001643579555196433,0.0010590452921278445,-0.0033644651514880167,-0.002227052116474427,0.01305715873092986,0.0026730998658111996,-0.0013816171160886323,0.013621698080132518,6.023235665309705,2.8570830103852547,0.3866524364369288,0.2305539758299634,0.1250156065034208,25.0,25.0,25.0,25.0,25.0,25.0,24.0,9.636,0.0,0.0,1.0,1781024410320169050
1781024410455875842,0.000390324668258824,57.29083878342252,103.13248267619116,0.0008184929671709343,-0.00250258061638616,-0.0001636403095096397,0.000818367276223244,-0.002590400834956979,-0.0017347612204599452,0.01014644154898608,0.0020934788342226217,-0.0010727332643298202,0.01379160335120022,6.023084527802681,2.857002727510167,0.3866698048140355,0.23058467771942368,0.1250195598223465,25.0,25.0,25.0,25.0,25.0,25.0,24.0,9.636,0.0,0.0,1.0,1781024410425194830
1781024410558544510,0.0003874811506117098,57.29084940599851,103.13248949077716,0.0007764315470996911,-0.002510703474827663,-0.00015970800358748027,-0.000846005254532765,0.002717351827858798,0.001818901497019492,-0.010677466274598878,-0.0021947646140132245,0.001116824758589333,0.008159495889324476,6.0294638008435335,2.8601860225360056,0.3855682513075419,0.22904954749073836,0.12471941876910884,25.0,25.0,25.0,25.0,25.0,25.0,24.0,9.637,0.0,0.0,1.0,1781024410551809037
1781024410659679664,0.0003907194982668589,57.290840088415464,103.13248296110255,0.0008130256845895913,-0.002502718929210042,-0.00016389590340466008,0.0007559893050688387,-0.002379159408988036,-0.0016025740982575651,0.009369157260879862,0.0019411850823035028,-0.0009922310155555244,0.013848822339436895,6.023015135347969,2.856952502175705,0.38667440401015823,0.23060604830202433,0.12502073195913813,25.0,25.0,25.0,25.0,25.0,25.0,24.0,9.636,0.0,0.0,1.0,1781024410650393469
1781024410756726845,0.0003918602247059898,57.29083774318851,103.13248101367446,0.0008217806826088184,-0.002500277889499894,-0.0001653349092177167,0.0011015444895531611,-0.0035017150948664444,-0.002319279100188704,0.013582537206804725,0.002783435123092847,-0.001439723053490697,0.013602841908266198,6.02322916839557,2.8570961968030124,0.38666486739153433,0.23054847357891375,0.12501966454959454,25.0,25.0,25.0,25.0,25.0,25.0,24.0,9.636,0.0,0.0,1.0,1781024410738103110
1781024410855696899,0.0003904840455317242,57.29084372808496,103.13248441214591,0.0007984961208969666,-0.0025041712951190754,-0.00016350565606481992,0.0005037040331287142,-0.0015606996376931605,-0.0010824217861545582,0.00629265020518416,0.001329920728928382,-0.0006679570599964828,0.013961570042585466,6.022910218743156,2.8568836701382496,0.38668009397288255,0.2306306558554187,0.12502167969929767,25.0,25.0,25.0,25.0,25.0,25.0,24.0,9.636,0.0,0.0,1.0,1781024410854565988
1781024410958561635,0.0003885300990324317,57.2908509721379,103.13248890785984,0.0007691165574441181,-0.002509572545973584,-0.00016094986733063585,-0.0008500183086130622,0.0027402647826504814,0.0018368619120315947,-0.01081124213657978,-0.0022195052768740047,0.0011245137711896548,0.007919199461087217,6.0297223296080835,2.860303449549523,0.3855189842275917,0.22898748164234103,0.12470608449168544,25.0,25.0,25.0,25.0,25.0,25.0,24.0,9.637,0.0,0.0,1.0,1781024410947578663
1781024411056587863,0.00038876935039280474,57.29085182468323,103.13248872816452,0.0007653409410143615,-0.0025091831943214416,-0.0001613682993711488,-0.000850456687228333,0.0027393776207817744,0.0018389726403758276,-0.010843000279081546,-0.002225948045858645,0.001125472371946031,0.00777241598585454,6.029894361239798,2.8603907419900603,0.385491182817261,0.2289409208708701,0.12469848681074552,25.0,25.0,25.0,25.0,25.0,25.0,24.0,9.637,0.0,0.0,1.0,1781024411042044284
1781024411155890702,0.000388510670807008,57.29085438339599,103.13248931843694,0.0007558374848462698,-0.0025095839106343623,-0.00016129232028509752,-0.000572254125075115,0.0018139866300941648,0.001192980013478762,-0.00710497035829372,-0.0014388246429268632,0.0007402063543469121,0.009290656357942717,6.027945938324158,2.8594353593944657,0.38585208090553375,0.22943858860300728,0.12480037937405948,25.0,25.0,25.0,25.0,25.0,25.0,24.0,9.637,0.0,0.0,1.0,1781024411137645301
1781024411256796020,0.0003889540469876047,57.290854880505734,103.13248867486644,0.0007525625940654353,-0.0025086480747673443,-0.00016211092903231191,-0.0008496389929676437,0.0027366337435741936,0.00183136005735443,-0.010840427989893714,-0.002217164161785899,0.0011213162858556703,0.007788434758825963,6.029837518684528,2.860356767639782,0.3855019049995438,0.2289548218976817,0.12470191623305556,25.0,25.0,25.0,25.0,25.0,25.0,24.0,9.637,0.0,0.0,1.0,1781024411233625415
1781024411356092209,0.000391081566277041,57.29085094410277,103.13248409812748,0.0007683700708659047,-0.0025026057482108,-0.0001654761663581986,0.0005218508658878119,-0.0016043782347660116,-0.0011219390727686834,0.0064680711451582775,0.0013815133168943263,-0.0006969650175793797,0.013840619370334383,6.022947054911605,2.8568966887392855,0.3866801274222773,0.23062256341839524,0.12502317579215422,25.0,25.0,25.0,25.0,25.0,25.0,24.0,9.636,0.0,0.0,1.0,1781024411344480676
1781024411456252477,0.0003911456408645748,57.29085326702456,103.13248385460884,0.0007590185134462161,-0.0025018752433912154,-0.00016615264976161794,0.0005490001372792105,-0.0016838198617763894,-0.0011767823812855545,0.006778428302334328,0.001449113714801194,-0.0007334541750001457,0.01379149677474241,6.022961072322158,2.8569032192040567,0.38668036528364824,0.23062081781811325,0.12502384967782157,25.0,25.0,25.0,25.0,25.0,25.0,24.0,9.636,0.0,0.0,1.0,1781024411454155021
1781024411555747892,0.0003882366512716268,57.290864470148406,103.13248972446016,0.0007148825060184314,-0.0025085927121847413,-0.00016293026027590878,-0.0007523651883666096,0.0024136502371241222,0.00157249136957113,-0.009434305572726133,-0.0018901523982887496,0.000971945037754889,0.009067905250419154,6.028271986262612,2.8595699402333157,0.3857808303308372,0.22933378440807736,0.1247796167010253,25.0,25.0,25.0,25.0,25.0,25.0,24.0,9.637,0.0,0.0,1.0,1781024411533321126
1781024411657004250,0.0003882029561065679,57.29086801135177,103.13248958821605,0.0007012451554396112,-0.0025077202542793425,-0.00016375819952166187,-0.000839641396313732,0.002698929040399945,0.0017649843286391244,-0.010599695383937072,-0.002125657884094162,0.0010878824300966838,0.008511815959685044,6.028853367648578,2.859853673821711,0.3856798669495859,0.2291952222906201,0.12475265852833647,25.0,25.0,25.0,25.0,25.0,25.0,24.0,9.637,0.0,0.0,1.0,1781024411642728443
1781024411755843591,0.0003878800380834395,57.29087320656858,103.13248989857424,0.0006823148571081488,-0.0025070809640842656,-0.00016444526175219014,-0.0007771517406439172,0.0024865234779222474,0.0016101725438176682,-0.00974508802918502,-0.0019365861644215889,0.0009961343464370376,0.008712763736668117,6.028428673354371,2.859647873147741,0.38576894156632424,0.22931994355392113,0.124779872786165,25.0,25.0,25.0,25.0,25.0,25.0,24.0,9.637,0.0,0.0,1.0,1781024411728150496
1781024411855910385,0.0003909688102955411,57.290870200293305,103.13248308678206,0.0006973505064628425,-0.0024970721792227212,-0.00017014262232585068,0.0006618946785733203,-0.001988193821974726,-0.0013990350072557549,0.008014865116642886,0.0017337160268565035,-0.0008872566248978453,0.013560607837762029,6.02304275147326,2.8569281206867543,0.38667643838107896,0.23060535889638065,0.1250256179593372,25.0,25.0,25.0,25.0,25.0,25.0,24.0,9.636,0.0,0.0,1.0,1781024411855739011
1781024411955925303,0.000388422226360206,57.290883248199776,103.13248838831014,0.0006487468991055131,-0.002502112250784633,-0.00016795283999441535,-0.0008413722401403503,0.0027415323198721653,0.0017903694552044572,-0.010887151338817689,-0.0021600729902761925,0.0010922601766012536,0.007612989443372816,6.029662333870039,2.860230109456251,0.38553878308351713,0.22901063261707572,0.1247167967739629,25.0,25.0,25.0,25.0,25.0,25.0,24.0,9.637,0.0,0.0,1.0,1781024411935995372
1781024412056436929,0.0003882942385654226,57.29089221179879,103.13248875028,0.0006211994596730457,-0.0024998528964633652,-0.00016954914004942606,-0.0008387054652719514,0.0027392313976970337,0.0017768462443080776,-0.010879874453158958,-0.002140505362327221,0.0010838192838627362,0.007552358916293965,6.029660097901737,2.860229801967895,0.38554581641400737,0.22901119899238287,0.12471996648433668,25.0,25.0,25.0,25.0,25.0,25.0,24.0,9.637,0.0,0.0,1.0,1781024412049412651
1781024412157635232,0.000367337548651276,57.29091645005017,103.13251206941352,0.00048768767851857287,-0.0025343857851439703,-0.00014336343092541924,0.0016378760851724868,-0.009477226132410097,-0.00582472488000506,0.026017513640808513,0.005265293909203965,-0.002470002150870331,0.011518280563526644,6.025817206037561,2.8584575963429573,0.3863439550491159,0.22990594826956412,0.12493659176236988,25.0,25.0,25.0,25.0,25.0,25.0,24.0,9.637,0.0,0.0,1.0,1781024412133066454
1781024412255908355,0.0003741128932720964,57.29083932348813,103.13247031303682,0.0006696238631578636,-0.0025027560153166655,-0.00015607907046684668,0.0007384899401163658,-0.0027728887523288926,-0.001720931986764628,0.009878522406733682,0.001952814286351904,-0.0009963743829136834,0.012738176612270167,6.024607389155782,2.8577703265072683,0.3863772931279362,0.23021960072052683,0.1249383516072164,25.0,25.0,25.0,25.0,25.0,25.0,24.0,9.637,0.0,0.0,1.0,1781024412242506655
1781024412358179155,0.00036614082433365937,57.29089291471346,103.13250435280008,0.0005451437372590518,-0.002532779388567749,-0.00014326599678848924,0.00014118740190317402,-0.0014213420827429585,-0.000789508037001102,0.0028746326034545053,0.0006270786818298215,-0.0002606376264291995,0.010450036824240642,6.027208571036106,2.8589844293628626,0.38590984496108727,0.22966452843613688,0.12481218896822692,25.0,25.0,25.0,25.0,25.0,25.0,24.0,9.637,0.0,0.0,1.0,1781024412335662102
1781024412455991643,0.00036212350668044066,57.29091978831685,103.13252039419604,0.0004768700675017594,-0.0025477881982370917,-0.00013671837846036626,-0.00031283873741740927,-0.00048477788899875215,-0.0001083391890587414,-0.0022751981901508347,-0.0003944653007431959,0.0002950727764252886,0.00895634160141172,6.0298535202041945,2.8603365323557948,0.3854731338670327,0.22888197789163803,0.1246834664812118,25.0,25.0,25.0,25.0,25.0,25.0,24.0,9.638,0.0,0.0,1.0,1781024412440022726
1781024412555914516,0.0003651836908164379,57.290917761717786,103.13251842451822,0.0005038202017189717,-0.002542569938969906,-0.00013992610446079344,0.0017170572199498126,-0.008619448281653718,-0.005355674817460601,0.024821917557661728,0.005209488064258902,-0.0025135180204208523,0.011697435447164006,6.025816569242087,2.858459239382515,0.3863619982188785,0.22991359045149243,0.124941865972357,25.0,25.0,25.0,25.0,25.0,25.0,24.0,9.637,0.0,0.0,1.0,1781024412533807095
1781024412655905206,0.0003669140009685382,57.290894364467,103.13250586411704,0.0005418345545223102,-0.00253397968401237,-0.00014330370478791442,-0.00013189448466068511,-0.00035459727784897826,-0.00010340494062751755,-0.0007765115001494438,-0.00011427400788244488,0.00011341643296542402,0.010011821179003622,6.027949522901057,2.859432574057478,0.3857908230114667,0.22941820675261995,0.12477673333690892,25.0,25.0,25.0,25.0,25.0,25.0,24.0,9.637,0.0,0.0,1.0,1781024412637619690
1781024412755777714,0.0003706589470693172,57.29088248852481,103.13249813098258,0.0005856020025672801,-0.002525290005969941,-0.00014796130381074878,0.0013453224027943978,-0.005364973275214492,-0.0034013629548695595,0.017769639989342736,0.003713219579337441,-0.001840770594218719,0.014054198351341637,6.023397356747537,2.8570991667907246,0.38655277590851506,0.23055577172223635,0.12498454892010552,25.0,25.0,25.0,25.0,25.0,25.0,24.0,9.637,0.0,0.0,1.0,1781024412745956669
1781024412856216279,0.0003625895247159504,57.29092828121239,103.1325257390098,0.0004594924671384665,-0.0025518746365804645,-0.00013570577478874327,-0.0003161398847524118,-0.0009146870321080528,-0.00034487626152064995,-0.0018279312498663744,-0.00028671195586504834,0.0002584263988867694,0.007537908727960795,6.031167875505139,2.86107462310522,0.3853331502257589,0.22855803943500488,0.12465081492062896,25.0,25.0,25.0,25.0,25.0,25.0,24.0,9.638,0.0,0.0,1.0,1781024412845214442
1781024412956730455,0.0003751251890319492,57.2909381054633,103.13252839240155,0.0005247934280791445,-0.002539838887133688,-0.00014736921360718706,-0.0006575762066071385,0.0017061635959494871,0.001109233752602801,-0.007408409621490793,-0.0012423958492193546,0.0008236683762857528,0.012070652638611526,6.024463733198627,2.859262606769956,0.3867937653607249,0.2301655331148554,0.12507585922742168,25.0,25.0,25.0,25.0,25.0,25.0,24.0,9.638,0.0,0.0,1.0,1781024412950004048
1781024413056041251,0.000387411043828417,57.290857933757714,103.13248669634642,0.0007820293350699526,-0.002509989273448278,-0.0001642681765160359,0.002061099454765412,-0.002328124827121777,-0.0016165680125779774,0.021299563950510345,0.001989055907010773,-0.0019978395813069873,0.0017814897736629352,6.036974673172706,2.8651777998544112,0.3869641048518371,0.2227671401899214,0.12508903142101005,25.0,25.0,25.0,25.0,25.0,25.0,24.0,9.639,0.0,0.0,1.0,1781024413046388322
1781024413156255390,0.0003750374223557787,57.29088720397867,103.13250560893466,0.0006366613254645091,-0.0025310075325660226,-0.0001501168298928373,0.0005264435418060699,0.002709921130312302,0.002620132925891252,0.008881419506452803,-0.0023358234347347143,-9.263552196389004e-6,0.06253607285523623,6.0324907047018606,2.853788025528231,0.38200554706138534,0.2370501871279705,0.12439427615372532,25.0,25.0,25.0,25.0,25.0,25.0,24.0,9.692,0.0,0.0,1.0,1781024413134275590
1781024413256453330,0.0003727419766020542,57.29087739479155,103.13249563100668,0.0005947494243835779,-0.002522695630625279,-0.0001495840142616085,0.0006942170075310666,-0.0028080567545587603,-0.0017949739711956665,0.009388369273364814,0.0020006686572456088,-0.0009644041811114368,0.014371845256015809,6.023038553202162,2.8569026193851337,0.38659091420022207,0.2306334815910935,0.12499372289707542,25.0,25.0,25.0,25.0,25.0,25.0,24.0,9.637,0.0,0.0,1.0,1781024413236586980
1781024413355838698,0.0003619407384667835,57.29095607511465,103.13254075634528,0.00039789749855148745,-0.002560870681225501,-0.0001319657387907818,-0.000584647466494659,-0.0010106367901504256,-0.0005183870232122053,-0.0028295834795840054,-0.00039354415690818866,0.0004594823124795195,0.011486892559313651,6.025716786705763,2.858407528354078,0.38636988751729406,0.22993892444287972,0.12494611312437418,25.0,25.0,25.0,25.0,25.0,25.0,24.0,9.637,0.0,0.0,1.0,1781024413326368699
1781024413455898148,0.000377254282403102,57.29092689043758,103.13252357849868,0.000558976063888214,-0.00253964951414796,-0.000148648061373156,-0.0006410784993012644,0.0020109858197144255,0.001263751648709664,-0.008460455916687492,-0.00125627880410136,0.000826250091046255,0.01328957494424688,6.023443011040563,2.861061800622255,0.387268492354134,0.2302580724484833,0.12521507219156633,25.0,25.0,25.0,25.0,25.0,25.0,24.0,9.641,0.0,0.0,1.0,1781024413445620538
1781024413556173504,0.0003800014459530909,57.2909224822036,103.13252059157904,0.0005964794784798082,-0.002537816515833125,-0.0001517017186641528,-0.00039759372490458966,0.003183813246320102,0.0014347538951617349,-0.008922564496900074,-0.0008117865051544678,0.0004606291251484638,0.01485391625189642,6.019693558118201,2.8545544805006298,0.3870174918846114,0.23196753973169204,0.12513794210740362,25.0,25.0,25.0,25.0,25.0,25.0,24.0,9.633,0.0,0.0,1.0,1781024413539501732
1781024413656044111,0.0003862387815937645,57.290871054211934,103.132495041104,0.0007446772953050636,-0.002519483302379506,-0.0001606383406164557,0.0018691893729870968,-0.0018765769930424111,-0.001334508937588443,0.01976146370358753,0.001463934112755281,-0.0017421573364940952,0.001954740542001595,6.037826671476732,2.8653878394975902,0.3866100837406225,0.22291302762654752,0.12499737454975748,25.0,25.0,25.0,25.0,25.0,25.0,24.0,9.64,0.0,0.0,1.0,1781024413639184096
1781024413756423209,0.0003689426866598672,57.29090734061085,103.13251336899732,0.0005135392764814122,-0.002539607721210716,-0.00014233706635813852,0.0002940674739287811,-0.0019600015613712397,-0.00123408455098681,0.005005152127570938,0.001175499054169773,-0.00048507594075159887,0.014923859599724093,6.023145324392906,2.8568245424641745,0.3865153613326104,0.23057596092593455,0.12496497928739128,25.0,25.0,25.0,25.0,25.0,25.0,24.0,9.637,0.0,0.0,1.0,1781024413721884180
1781024413855924704,0.0003694255958080078,57.29090264314653,103.1325111688138,0.00052000859963293,-0.0025383849783468964,-0.00014294433430274208,-0.0005544707445922814,0.0011152917825483126,0.0008602738583161267,-0.00624580063932118,-0.0012170763882209535,0.00067895991103527,0.00867521874665464,6.029425810464087,2.860101745083052,0.3855132754104799,0.22909554813157593,0.12470156337855554,25.0,25.0,25.0,25.0,25.0,25.0,24.0,9.638,0.0,0.0,1.0,1781024413843410361
1781024413956536786,0.0003716151783446681,57.290949314272126,103.1325375034933,0.0004699738714141547,-0.0025530372982387113,-0.00014039063994943633,-0.0005419717348229948,0.0013444789047624087,0.0008381211203812757,-0.005922822673625274,-0.0009099922122457678,0.0006434633518131058,0.011550265295785268,6.025253942208944,2.8587283494758076,0.3865336551663926,0.23001146941364323,0.1249981638253684,25.0,25.0,25.0,25.0,25.0,25.0,24.0,9.637,0.0,0.0,1.0,1781024413922686247
1781024414055847777,0.0003838023027309638,57.29091512651176,103.13251601491709,0.0006216983887825132,-0.0025313208463059777,-0.0001554179678359347,-0.0004483280798278063,0.003464115790195781,0.0016034649113894617,-0.009632900650757224,-0.0009829972697920637,0.0005393895418142344,0.014845414543908982,6.0196926205611145,2.854576084647455,0.3870335863054597,0.2319525727222222,0.1251427157118429,25.0,25.0,25.0,25.0,25.0,25.0,24.0,9.633,0.0,0.0,1.0,1781024414047361003
1781024414155872951,0.00038066749679841226,57.29087629748665,103.13249904106232,0.0006706535290262376,-0.002523254658064745,-0.00015502352581108416,0.00046577628145125704,0.0031485156234846152,0.002841227695692909,0.00785549750894284,-0.0025408119140307847,0.00009220923459751688,0.06320931585662205,6.0331065120629175,2.8541792986560823,0.3818567824104597,0.23684099858122656,0.124353037767926,25.0,25.0,25.0,25.0,25.0,25.0,24.0,9.694,0.0,0.0,1.0,1781024414139033130
1781024414256243948,0.0003693787578589485,57.2909150776828,103.13251823727894,0.0004937360971611765,-0.002543858708094114,-0.00014119315168753446,-0.0005180505220490076,0.00042478259729466855,0.0005397071319344531,-0.005594342085796093,-0.0011158689527619229,0.0006125761748541276,0.005679621317905588,6.0335557169411205,2.8622262040463435,0.3848636222688475,0.2279496035918236,0.1245177866909827,25.0,25.0,25.0,25.0,25.0,25.0,24.0,9.639,0.0,0.0,1.0,1781024414216012017
1781024414358874505,0.0003722212476041749,57.29090219242399,103.13251005071368,0.0005311566298930274,-0.002535639305928215,-0.000145085935679707,0.000759834709859653,-0.003558401032734139,-0.002247872111068737,0.010732970553323949,0.0023283983545460026,-0.0010933971108426951,0.0146803326761209,6.023277253710614,2.8569126540518694,0.3865184766103719,0.23055511585446023,0.12496832121721332,25.0,25.0,25.0,25.0,25.0,25.0,24.0,9.637,0.0,0.0,1.0,1781024414344105532
1781024414456415818,0.000374438753955011,57.29094559166979,103.132535272906,0.0004837452174442785,-0.002549498581790235,-0.000142729427107609,-0.0005779864189862764,0.0014510847824246425,0.000904401854486005,-0.006368898391799407,-0.0010061227347823156,0.0006906709527529449,0.011545692719632458,6.025240287516207,2.858724258038971,0.38654421194387784,0.2300113107624706,0.12500145931891202,25.0,25.0,25.0,25.0,25.0,25.0,24.0,9.637,0.0,0.0,1.0,1781024414454886249
1781024414555915759,0.0003847858912043451,57.29091858070447,103.13251814021886,0.0006138794099460116,-0.0025331093654023156,-0.0001552037601673081,-0.0004373798889530203,0.0034570150615108107,0.0016012182601163726,-0.00954080542809222,-0.000967740893495584,0.0005288250115331143,0.014848733870070067,6.0196602849630425,2.8545428532398933,0.38703491896992254,0.23197080971938505,0.12514347582164118,25.0,25.0,25.0,25.0,25.0,25.0,24.0,9.633,0.0,0.0,1.0,1781024414543299883
1781024414656343938,0.0003739621975100659,57.29089055980013,103.13250385029686,0.0005514467016482752,-0.002530545366664157,-0.00014733588530538037,-0.00046586469613240944,0.0010347724096851263,0.0007772138695861516,-0.005273424520319983,-0.0010385229080612066,0.0005748990262893046,0.009486144256388544,6.028466761368044,2.8596752273038852,0.3856950785656295,0.2293025536393491,0.12475158412629594,25.0,25.0,25.0,25.0,25.0,25.0,24.0,9.637,0.0,0.0,1.0,1781024414622786522
1781024414755858549,0.00037391998565693255,57.2908924369941,103.13250470812105,0.0005441901609347121,-0.0025312131881433915,-0.0001469820903640051,-0.0005110388953387157,0.0011356029531374187,0.0008480234097912788,-0.005719793086548777,-0.0011439046582584745,0.0006298493382094404,0.00913387926903086,6.028679962154047,2.8597784211024995,0.385665668727189,0.22928097189333965,0.12474594202221008,25.0,25.0,25.0,25.0,25.0,25.0,24.0,9.637,0.0,0.0,1.0,1781024414740167577
1781024414856503239,0.0003736050221061102,57.290950555257595,103.1325383303793,0.00046172185876908,-0.0025525602021285653,-0.0001408836335254785,-0.0005497102079009413,0.0012852049244434058,0.0008053592378015965,-0.005779263903427138,-0.0009357938855122618,0.0006461788977601839,0.011538484712238268,6.025357744979285,2.858510299958199,0.3864728345642944,0.2299985573631151,0.1249790358715349,25.0,25.0,25.0,25.0,25.0,25.0,24.0,9.637,0.0,0.0,1.0,1781024414821363045
1781024414955902168,0.00037746928360281106,57.29094312150974,103.13253368700242,0.0004991959268709184,-0.0025477700365235216,-0.0001449728065837028,-0.0006021066930185996,0.0015478181295004426,0.0009639445900382746,-0.0069206411056757155,-0.0010495018926586473,0.0007243763706249988,0.011617898669190304,6.0250041888717645,2.85912025262923,0.3866743008618489,0.2300455022334269,0.12504215930785295,25.0,25.0,25.0,25.0,25.0,25.0,24.0,9.638,0.0,0.0,1.0,1781024414953755041
1781024415056183643,0.0003784578426914787,57.290874726211584,103.1324946654491,0.0005962678204514301,-0.002520395296663933,-0.0001525557328211335,-0.0006824594509549072,0.0020294462939775527,0.0014186180467524437,-0.008315431058461198,-0.001705853030296973,0.0008863684483921087,0.008458842065771724,6.029376787046187,2.860158974902583,0.3855645430992965,0.22908055852271628,0.12471873255328882,25.0,25.0,25.0,25.0,25.0,25.0,24.0,9.637,0.0,0.0,1.0,1781024415034525719
1781024415156035541,0.0003741439393343942,57.29090519610896,103.13251182374606,0.0005212493955809188,-0.002536590317342572,-0.0001454512822028139,0.0005346662323418719,-0.0027953912051691737,-0.001763510505241333,0.007992252522044033,0.001767856167035566,-0.0008003000807973702,0.014806031562455649,6.023271775134189,2.856903045653075,0.3865161755794417,0.23053644182649,0.12496618867646686,25.0,25.0,25.0,25.0,25.0,25.0,24.0,9.637,0.0,0.0,1.0,1781024415141291165
1781024415255954968,0.00038057316905104903,57.29093776817873,103.13253045369116,0.0005263896350169244,-0.0025441427018335623,-0.0001480089927424663,-0.0006396535297298035,0.0017178697562478685,0.001069877712778686,-0.007764203882901329,-0.001144141440741855,0.0007824045004423169,0.011910848596243986,6.024439152904443,2.859787993049125,0.3869163128198493,0.23014670693020223,0.12511645661168144,25.0,25.0,25.0,25.0,25.0,25.0,24.0,9.638,0.0,0.0,1.0,1781024415248128958
1781024415356591798,0.00039546006099359455,57.29087456412847,103.13249582383604,0.0007488358092971084,-0.002512328792941754,-0.00016698010141556464,-0.00039323262171476526,0.004834626738621831,0.0026585862906580247,-0.014140384070194825,-0.002065493210762276,0.0008236232352109533,0.005946627810874129,6.028196581080755,2.8601185376595533,0.3875686023807973,0.2253439393886463,0.12517882595769023,25.0,25.0,25.0,25.0,25.0,25.0,24.0,9.632,0.0,0.0,1.0,1781024415347804642
1781024415460574299,0.0003832124368630273,57.290865127355715,103.1324879824534,0.0006369029544681996,-0.002511701168496879,-0.00015760007058292073,0.001195850579068146,-0.004303487969996072,-0.0027586955084962436,0.015356524960974026,0.0031658023363317937,-0.0016001508555721965,0.014124646374181222,6.023139472698138,2.856983955472514,0.3866162098607122,0.23060883002628477,0.12500398234585597,25.0,25.0,25.0,25.0,25.0,25.0,24.0,9.636,0.0,0.0,1.0,1781024415449184599
1781024415555849735,0.00036770544578201256,57.29095193029122,103.13253998635668,0.0004017064446475624,-0.002561946600144059,-0.00013414239106000623,-0.0005500621335712918,-0.0008332720499436693,-0.00042718213249063697,-0.0029615370702330687,-0.0003539993547714623,0.00042568007980096494,0.011565700849072416,6.0257357921147205,2.858432009966641,0.3863930988521474,0.22993424074034768,0.1249534981678172,25.0,25.0,25.0,25.0,25.0,25.0,24.0,9.637,0.0,0.0,1.0,1781024415540270930
1781024415656770732,0.00038629584256688506,57.29085338725464,103.13248158780172,0.0006737024965910301,-0.0025041051612193247,-0.00016146381431334997,0.0007414076858041985,-0.002447185021364265,-0.001603678196361098,0.00940881804184506,0.0019488689316549976,-0.0009827688839389186,0.014296407129588188,6.022912339568638,2.8568697000572154,0.3866547124589819,0.2306448609728191,0.12501413828568037,25.0,25.0,25.0,25.0,25.0,25.0,24.0,9.636,0.0,0.0,1.0,1781024415637136350
1781024415755854533,0.0003715124495813367,57.29095458997769,103.1325411252591,0.00042155137292501974,-0.00255835887203717,-0.00013725972276508978,-0.0005754245562096579,-0.00021502461945832496,-0.00007836304346620105,-0.004026233147708046,-0.0005584099295561854,0.0005178750508009172,0.011537316705251427,6.025504915735745,2.858356921615929,0.38640741181476335,0.2299844554332555,0.12495852617873784,25.0,25.0,25.0,25.0,25.0,25.0,24.0,9.637,0.0,0.0,1.0,1781024415729391719
1781024415856207047,0.000387250807683422,57.290925802695234,103.132522783057,0.0005782213422957935,-0.0025336526408052595,-0.00015484158071359965,-0.0007304498277118461,0.0020775567147732995,0.00130131378079039,-0.009353295605431296,-0.0014238545923719534,0.000926100843981009,0.013273270554254734,6.02339691292766,2.861055270551682,0.3873017542660403,0.23026883136809315,0.1252259730079584,25.0,25.0,25.0,25.0,25.0,25.0,24.0,9.641,0.0,0.0,1.0,1781024415851863079
1781024415957571186,0.00037982108393802566,57.29088287386566,103.13249909369682,0.000574441008094934,-0.002523981356113813,-0.0001518481765420585,-0.00046832972268404056,0.0011601120024870369,0.0008475197954433293,-0.005365769610897956,-0.0010866760608432122,0.0005860094943807807,0.009234383142875226,6.028454158410767,2.859691594901951,0.3857264397176596,0.22932797655767617,0.12476420979774526,25.0,25.0,25.0,25.0,25.0,25.0,24.0,9.637,0.0,0.0,1.0,1781024415928455375
1781024416055744869,0.000380162501117612,57.2909459645074,103.13253566437326,0.0004950258419880026,-0.0025490581932053765,-0.00014564998551826132,-0.0006064236511486619,0.0014650433266311432,0.0009133634069909684,-0.006950844066997292,-0.0010256235320002037,0.0007188344978696955,0.011628082531443222,6.02500437353831,2.859118364505507,0.38667921254705934,0.23004993813215216,0.1250439940349276,25.0,25.0,25.0,25.0,25.0,25.0,24.0,9.638,0.0,0.0,1.0,1781024416055552365
1781024416158452254,0.000381875033104739,57.290875869720225,103.1324953867454,0.0005969705856236878,-0.0025198096949455052,-0.00015422149426706533,-0.0006613839517279474,0.001979761137436977,0.0013659595892250391,-0.00803522789436243,-0.0016293516062628492,0.0008552505510722061,0.009149520163060526,6.028681530645393,2.859802696646176,0.38567992911651167,0.22924047374237616,0.12474945231114616,25.0,25.0,25.0,25.0,25.0,25.0,24.0,9.637,0.0,0.0,1.0,1781024416133423336
1781024416256546918,0.0003728110981592533,57.29095514695226,103.13254134468552,0.0004194206961065707,-0.002558376722624166,-0.00013776861211906613,-0.000578089110311932,-0.00024137493640096793,-0.00009436710904234312,-0.004018494815710416,-0.000553096513767766,0.0005174500215922284,0.011534127567900903,6.025519392215605,2.8583637029150313,0.3864095556835498,0.22998125719134072,0.1249593190150312,25.0,25.0,25.0,25.0,25.0,25.0,24.0,9.637,0.0,0.0,1.0,1781024416244624334
1781024416356581200,0.00039075616430463345,57.290845952876914,103.13247706811956,0.0007040939332856685,-0.002497394938350881,-0.0001656558578016445,0.001070457961381598,-0.0034423374678773646,-0.002247303980372104,0.01333010984259606,0.002722264147215136,-0.0014010007094684216,0.014123306195188246,6.023032303270677,2.8569565152367655,0.3866635749966473,0.23060926922789224,0.1250182647275883,25.0,25.0,25.0,25.0,25.0,25.0,24.0,9.636,0.0,0.0,1.0,1781024416338422294
1781024416455905637,0.00037891036574777814,57.29095121761651,103.13253872120391,0.0004658609594790013,-0.0025507416873208635,-0.0001436676632806011,-0.0005839828931234324,0.001282766749596115,0.0008038126532164522,-0.006119275811596915,-0.0009916520276557362,0.0006811824694722915,0.011542058488901948,6.025361538589406,2.858513096162143,0.3864839360313788,0.22999666173473984,0.12498274529355448,25.0,25.0,25.0,25.0,25.0,25.0,24.0,9.637,0.0,0.0,1.0,1781024416439620755
1781024416557548122,0.0003904676671016134,57.290849370632955,103.13247911023072,0.000692378387808959,-0.0024996500772868535,-0.0001647368755542943,0.0009929577376945468,-0.003239137839647732,-0.002112391148749416,0.01244703362834176,0.0025476719471930233,-0.0013052500515557967,0.014139717953074397,6.023029021474679,2.8569537141087538,0.38666019295547216,0.23061072758635648,0.1250171021187222,25.0,25.0,25.0,25.0,25.0,25.0,24.0,9.636,0.0,0.0,1.0,1781024416537411130
1781024416656316915,0.0003778478413361574,57.290904873689016,103.13251206701834,0.0005148853182152361,-0.0025365094812562793,-0.00014688886293105882,-0.0005720029337348097,0.001131653104546301,0.0008685260803245652,-0.006378050914369369,-0.0012557692099532428,0.0006980678396780156,0.00870958097130224,6.029454551777471,2.860101888529047,0.3855189279275162,0.22908278488427825,0.1247034348289918,25.0,25.0,25.0,25.0,25.0,25.0,24.0,9.638,0.0,0.0,1.0,1781024416656156336
1781024416755928107,0.0003940300639838779,57.29086163310415,103.1324903193718,0.000736228949874767,-0.002507865861603123,-0.0001658389202746167,0.0003145915616824162,0.003964174388966616,0.0032202354437136133,0.005574206279090218,-0.002937956137115513,0.0003109206617953505,0.06374722446594264,6.033360576356706,2.8544417228691294,0.3816106193236934,0.23666235824453571,0.12427926435383756,25.0,25.0,25.0,25.0,25.0,25.0,24.0,9.694,0.0,0.0,1.0,1781024416735799488
1781024416856009929,0.000375749624646713,57.29092195999805,103.13252225385288,0.0004733739084174546,-0.0025454913032489277,-0.00014305594614389016,-0.0005338225212795436,0.00018692391120744603,0.00035732332576483307,-0.005087923110525098,-0.0009901773186712978,0.0005822569127120483,0.006808104640980105,6.032115506474026,2.8615538749424436,0.3851788582774526,0.22830234152620407,0.12460840941948584,25.0,25.0,25.0,25.0,25.0,25.0,24.0,9.639,0.0,0.0,1.0,1781024416822427081
1781024416956192236,0.0003900813306302981,57.29085580822365,103.13248398683896,0.000671911013407512,-0.002503977016846414,-0.00016313843565015572,-0.0008096166847311452,0.00274361703003776,0.0018691725565360049,-0.010414251380847004,-0.0021692563029913773,0.00108814593490111,0.007778278762739417,6.030034067469383,2.860472389155416,0.3854626734552816,0.22890270721370476,0.12469172124699386,25.0,25.0,25.0,25.0,25.0,25.0,24.0,9.637,0.0,0.0,1.0,1781024416943702502
1781024417056080251,0.0003833805641418842,57.29088341170068,103.132499545843,0.0005769082826599752,-0.0025231154777436045,-0.00015368860094760347,-0.000665180785450117,0.0018824855384121715,0.0013280459709691316,-0.008058092824228527,-0.0016391701241113786,0.0008595790399802364,0.008440845095518684,6.029569126131582,2.8602510611774195,0.3855267311918842,0.2290209123641954,0.12470716267089424,25.0,25.0,25.0,25.0,25.0,25.0,24.0,9.638,0.0,0.0,1.0,1781024417044371456
1781024417156066246,0.00039349159796992574,57.29084754577619,103.1324784581472,0.0007066093761796353,-0.002496724246427611,-0.00016707088503067097,0.0007113314977673156,-0.00219055159152413,-0.001458684128045759,0.008855299133590532,0.001823102053005429,-0.0009300606417564132,0.014292874747060109,6.022855898406559,2.8568534490265667,0.3866846227461048,0.23064818695023187,0.12502346244140344,25.0,25.0,25.0,25.0,25.0,25.0,24.0,9.636,0.0,0.0,1.0,1781024417119246167
1781024417256548848,0.0003837452401141164,57.29088678943159,103.1325009831436,0.0005723966111423486,-0.0025241933700549408,-0.0001535479385559654,0.0002651881634710775,-0.001392875951029369,-0.0008237158357018563,0.0038518491284609104,0.0008313664808077987,-0.00038749453971345665,0.011345520592973371,6.026384905813621,2.858614921074368,0.38606031439703586,0.22981437982926353,0.12485202089801208,25.0,25.0,25.0,25.0,25.0,25.0,24.0,9.637,0.0,0.0,1.0,1781024417236610021
1781024417356055166,0.0004048994503737491,57.290870255062295,103.13249299125108,0.0007844709481547879,-0.002503331800444966,-0.00017399988046613502,-0.000489682949861969,0.005172251838243587,0.0028543570882529823,-0.015407315684378637,-0.00232866126360202,0.0009575417617254944,0.00611443198181739,6.028474950005454,2.859963694182696,0.3873414460588334,0.22560447404855288,0.12512049929255378,25.0,25.0,25.0,25.0,25.0,25.0,24.0,9.633,0.0,0.0,1.0,1781024417351938897
1781024417455893212,0.0003866593298428743,57.29087556820956,103.13249440252945,0.0006039786172409464,-0.0025168376051593853,-0.00015714521960510287,0.00008294016820699948,-0.0005633640098384613,-0.0003004905318343914,0.00137805132945538,0.0002929277560821086,-0.00012954496916610533,0.011019364587862832,6.026599879673374,2.8587430833613405,0.3860352508200632,0.22975851362580585,0.12484658094388884,25.0,25.0,25.0,25.0,25.0,25.0,24.0,9.637,0.0,0.0,1.0,1781024417452868904
1781024417556179706,0.0003968288141023944,57.290863748260875,103.13249178240756,0.0007378954282830918,-0.002507155170896776,-0.00016726668771617365,0.00028559498607516723,0.004011967753395689,0.0032287766232617083,0.005373402303434107,-0.0029574300659288267,0.00033559183867991793,0.0633671183415922,6.032560183780137,2.8540145112956092,0.38167918171466714,0.23691029595641705,0.12429929280194409,25.0,25.0,25.0,25.0,25.0,25.0,24.0,9.693,0.0,0.0,1.0,1781024417540922516
1781024417656459125,0.0003802205908902817,57.29091523021407,103.13251823270488,0.0004983409614593788,-0.002540485447815595,-0.00014677655507179077,-0.0005415382815231137,0.0005299328635373927,0.0006121173565662136,-0.006009083078148968,-0.0012060326311118575,0.0006487006097363654,0.005167535550773513,6.034163185391959,2.8625538591557276,0.38478854376524474,0.22778423284160773,0.12449865638269043,25.0,25.0,25.0,25.0,25.0,25.0,24.0,9.639,0.0,0.0,1.0,1781024417634184658
1781024417756748969,0.0003930255584426698,57.29085738123434,103.13248506891172,0.0006756953735577303,-0.0025028430133238865,-0.00016477062583143432,-0.0007418585947673298,0.00247336714999787,0.0016552062007223547,-0.009288402509186328,-0.001918289235863656,0.0009792137038266578,0.00894766775701547,6.0285503630385895,2.85973715788994,0.3857409310415467,0.22928629225750796,0.12477052270268488,25.0,25.0,25.0,25.0,25.0,25.0,24.0,9.637,0.0,0.0,1.0,1781024417747307959
1781024417855899435,0.00038256481690573376,57.2909062010991,103.13251239410629,0.0005241810022347703,-0.002534322227656324,-0.0001497056074253399,0.0005343095749012004,-0.002685302343442307,-0.0017064669412832866,0.007842461806244079,0.0017409849727027188,-0.0007918269012555711,0.014896763744731598,6.023151138122545,2.856834266757058,0.3865432796547384,0.23056719401001255,0.12497449461987324,25.0,25.0,25.0,25.0,25.0,25.0,24.0,9.637,0.0,0.0,1.0,1781024417834991295
1781024417958701726,0.0003971325345596095,57.290844754089285,103.13247635482293,0.0007204020669805035,-0.0024932908088858767,-0.0001697899583433133,0.0011264165841177551,-0.003569604343426905,-0.002330930744456201,0.013923628470181295,0.0028321309742619706,-0.0014678667762757591,0.01379919399550026,6.023327345310008,2.8571297911174844,0.3866393455291717,0.2305305125112116,0.12501332135253737,25.0,25.0,25.0,25.0,25.0,25.0,24.0,9.636,0.0,0.0,1.0,1781024417943925071
1781024418058518753,0.0003808206759491132,57.29095655069163,103.13254192424913,0.0004385672345400464,-0.002554379316048077,-0.00014276192245948484,-0.0005942529682943522,0.000514325777963327,0.00034655704209175683,-0.005197527771626338,-0.0007884729176094328,0.0006116337807652771,0.011559242280929447,6.025425300149915,2.8583945834307074,0.38644509985505193,0.2299953124954296,0.12497073899589856,25.0,25.0,25.0,25.0,25.0,25.0,24.0,9.637,0.0,0.0,1.0,1781024418038546659
1781024418155898020,0.0003970318055402955,57.29084705821228,103.13247770077294,0.0007110605534156349,-0.0024948519339716185,-0.00016916518148822062,0.0008547901606875278,-0.0027009253610529587,-0.001753691328598926,0.0105599294615171,0.0021405017012485076,-0.0011128742981473395,0.01306147185977777,6.024152660632735,2.8575489151951317,0.3865001104988763,0.230326076096297,0.12497542826107332,25.0,25.0,25.0,25.0,25.0,25.0,24.0,9.637,0.0,0.0,1.0,1781024418149851884
1781024418256768697,0.0004008444537401136,57.29086175563073,103.13249042965109,0.0007577446439913547,-0.0025029634664670048,-0.00017047331987220582,0.0002467140689805294,0.0041618749479445894,0.0032825063334686595,0.0047359504245422885,-0.003064473971716346,0.00039736866388623325,0.06427383136821445,6.033752980172124,2.85472795192879,0.3814804088698348,0.23651052288518704,0.12424247370469058,25.0,25.0,25.0,25.0,25.0,25.0,24.0,9.695,0.0,0.0,1.0,1781024418230289944
1781024418356557896,0.0003890838555269989,57.29088061471802,103.13249686317964,0.0005962403169930208,-0.002517981891092974,-0.00015780300441687776,0.0007645438108623478,-0.0028965043881957796,-0.0018722449537828248,0.01012403036640835,0.0021344299098384947,-0.0010443477138622696,0.014471180404709225,6.022881479919959,2.856817638780244,0.3866348790780841,0.23067742023942597,0.12500779827230646,25.0,25.0,25.0,25.0,25.0,25.0,24.0,9.636,0.0,0.0,1.0,1781024418339937482
1781024418456104524,0.000399048575841339,57.29084511911088,103.13247667437037,0.0007243366548082673,-0.0024922241109582304,-0.00017097217446369946,0.0009632494088307918,-0.0030152186348227053,-0.0019695832876333195,0.011864643826831393,0.0024067754593561875,-0.0012517175239320792,0.013389727512243708,6.023774110376989,2.8573597740808867,0.386569380900134,0.23041698009511183,0.12499455761657596,25.0,25.0,25.0,25.0,25.0,25.0,24.0,9.637,0.0,0.0,1.0,1781024418431648197
1781024418555967332,0.0003925567024312868,57.29093950307077,103.13253121606763,0.0005438558960145484,-0.002538393840714236,-0.00015488418398896004,-0.0007397915448219731,0.0017086438939804829,0.001065772419577686,-0.008695591690269115,-0.0013100610594375982,0.0008864214852342913,0.01193672525711334,6.024428288807572,2.8597936381377487,0.38694642554649583,0.2301474754573976,0.1251261752865476,25.0,25.0,25.0,25.0,25.0,25.0,24.0,9.638,0.0,0.0,1.0,1781024418547821373
1781024418657561411,0.00039151893197655386,57.290869678380275,103.13249133715274,0.0006237230468575133,-0.002512045442676017,-0.0001607537923287446,-0.0007279943131916138,0.002284233278299513,0.0015507830554414728,-0.008926483455429192,-0.0018290216492280289,0.0009476521485990512,0.008824288040294519,6.028852247750028,2.8598974399081505,0.38568145581411034,0.22920957729689145,0.12475321860540424,25.0,25.0,25.0,25.0,25.0,25.0,24.0,9.637,0.0,0.0,1.0,1781024418643276070
1781024418758536082,0.0003968596897245123,57.29085807622084,103.13248553332346,0.0006834209525299341,-0.0025008217170538072,-0.0001671238258363864,-0.0008567110245049753,0.0028399876603689973,0.0018917985296773865,-0.010754656467254283,-0.0022149528933864022,0.0011315941131923217,0.00891304533646967,6.028743549960381,2.8598260529939385,0.3857016976537944,0.2292125604258977,0.12475789206418118,25.0,25.0,25.0,25.0,25.0,25.0,24.0,9.637,0.0,0.0,1.0,1781024418727795528
1781024418858786584,0.0003813189139666058,57.2909554495544,103.13254127763987,0.0004252801385061236,-0.0025550363172090933,-0.00014233235132018806,-0.0006216302758979901,-0.0002160874225430549,-0.00008005795922541485,-0.004446239931353102,-0.0006330435623175576,0.0005636773296195434,0.01151933848267982,6.025571608964493,2.8583912708174424,0.3864280815466352,0.22996540437460913,0.12496555196775004,25.0,25.0,25.0,25.0,25.0,25.0,24.0,9.637,0.0,0.0,1.0,1781024418841875912
1781024418956052373,0.0003945663601165883,57.290862337636405,103.1324870282623,0.0006518501679130007,-0.0025060293922032446,-0.00016410364598700542,-0.000685958297839984,0.002238466169913357,0.0015090884185020943,-0.008502470330616168,-0.0017541132249958163,0.0008997890152474155,0.008982569961186926,6.028593705649397,2.8597739569116554,0.38573747187442087,0.2292705498335863,0.12476946450434308,25.0,25.0,25.0,25.0,25.0,25.0,24.0,9.637,0.0,0.0,1.0,1781024418932395433
1781024419055985932,0.0003985274521481911,57.29085748924335,103.1324851846549,0.0006911425585065029,-0.0024992051806606535,-0.00016843119833841503,-0.0008713178143192517,0.0028745888261761713,0.0019261675941489803,-0.011005849061401007,-0.0022737760382290366,0.0011553307423855426,0.008268170285857029,6.029378321282413,2.8601505105019727,0.3856016562658291,0.22906931536448005,0.12473199648488736,25.0,25.0,25.0,25.0,25.0,25.0,24.0,9.637,0.0,0.0,1.0,1781024419051428084
1781024419156110537,0.00040034778494861143,57.29092708110479,103.13252336801882,0.0006168074808370281,-0.0025276700842754617,-0.0001629350699814598,-0.0008104298434501952,0.0019915461603171184,0.0013145462761433148,-0.010801115442194543,-0.0016471195946070596,0.0010520708798935166,0.08679949550171503,6.02618102664119,2.858769844072486,0.3838533162681032,0.2291886203965621,0.12363904400123522,25.0,25.0,25.0,25.0,25.0,25.0,24.0,9.708,0.0,0.0,1.0,1781024419124973524
1781024419256160401,0.00039228893949616464,57.29087400537455,103.13249366097394,0.00061092226502441,-0.0025142932042447872,-0.0001602959545847127,-0.0007411952644335057,0.002286131790443935,0.0015598975772643017,-0.009101924395229615,-0.0018575986961767348,0.0009650322325534598,0.00876990878601755,6.029113877472229,2.860025963062194,0.385625143536467,0.2291220086267279,0.1247355073305942,25.0,25.0,25.0,25.0,25.0,25.0,24.0,9.637,0.0,0.0,1.0,1781024419242410023
1781024419356128578,0.0003984227798810497,57.29085824256606,103.13248528929452,0.0006824031664003532,-0.00250040757193391,-0.0001678819969540659,-0.0008591068421155698,0.0028540716042982687,0.0019044889104231463,-0.010822126461427896,-0.002230167042820178,0.0011371501135329152,0.008663847293400017,6.029049384579237,2.8599890240222425,0.3856535865193253,0.22913257961823008,0.1247448223611542,25.0,25.0,25.0,25.0,25.0,25.0,24.0,9.637,0.0,0.0,1.0,1781024419334213072
1781024419455795449,0.0004084524032618671,57.29089915445254,103.13250785737974,0.0007219215406153734,-0.002511468035463979,-0.0001725565613574113,-0.0005887603433144303,0.004828049419042571,0.002322039272893604,-0.013403533721669846,-0.001637378700891346,0.0008500877184325522,0.02000714331693299,6.014915246350236,2.850846853496106,0.38727362096349094,0.23318671834375496,0.12517494080285213,25.0,25.0,25.0,25.0,25.0,25.0,24.0,9.631,0.0,0.0,1.0,1781024419454781358
1781024419555979752,0.00039224048056912434,57.29087875210169,103.13249621385631,0.0005962008806764252,-0.002516965507144034,-0.00015933606447769165,-0.0007178601227190027,0.0021540289982352394,0.0014896265909422526,-0.008817096422388062,-0.0018005756724451185,0.0009355562265777556,0.0083863301705153,6.029570449342957,2.8602496626291827,0.3855387000976283,0.22901920280542312,0.12471176453290868,25.0,25.0,25.0,25.0,25.0,25.0,24.0,9.637,0.0,0.0,1.0,1781024419540921503
1781024419656359412,0.00040246242390412775,57.29084550171049,103.13247625895472,0.0007243934957245091,-0.002491067421974534,-0.00017271707348784338,0.001151229580178447,-0.0036229951152751062,-0.0023671232567994377,0.01419576553740438,0.0028831259999536085,-0.0014987948985553394,0.013898418527923874,6.0231633600514,2.8570276156711354,0.38666674686440405,0.23058060041215123,0.12502157876614625,25.0,25.0,25.0,25.0,25.0,25.0,24.0,9.636,0.0,0.0,1.0,1781024419619780958
1781024419757603761,0.0004012077921620654,57.29085890167227,103.13248599184564,0.0006964414860232759,-0.002497902606906389,-0.0001700508510821855,-0.0006662141070982443,0.0021514368033149255,0.0014354629546484564,-0.00828733418329369,-0.001707176004292749,0.0008745068955085364,0.009166863536667033,6.028267642995723,2.859599587684887,0.38580876096096584,0.22935619112497713,0.12479042820430802,25.0,25.0,25.0,25.0,25.0,25.0,24.0,9.637,0.0,0.0,1.0,1781024419737888049
1781024419858516887,0.0003859032320479093,57.290958434278075,103.1325428357539,0.0004356831907672995,-0.0025537406609446346,-0.00014499795802537657,-0.0006291536712551232,0.000244607917790221,0.00018445201525667265,-0.00519363484466011,-0.0007572823060426613,0.0006183160394493888,0.011568670091745364,6.025436147221147,2.8583986360955222,0.3864525049526721,0.22999317400252847,0.12497332578982465,25.0,25.0,25.0,25.0,25.0,25.0,24.0,9.637,0.0,0.0,1.0,1781024419849064676
1781024419960605633,0.00039863449979247,57.29086014433101,103.13248434061065,0.0006643837082292456,-0.0025025685084275173,-0.0001669620388853592,0.0009735086495319064,-0.0032456553511921496,-0.0021150093226669593,0.01229561837185352,0.0025329196251224415,-0.0012885110240811169,0.01429209852201954,6.022860666399438,2.8568279766881473,0.3866758615475625,0.23067428189777192,0.1250219841371308,25.0,25.0,25.0,25.0,25.0,25.0,24.0,9.636,0.0,0.0,1.0,1781024419941536452
1781024420061753031,0.0004014740925795421,57.29085798692421,103.1324849928333,0.0006912369941694176,-0.002498223192999832,-0.00016995593561977725,-0.0008801223952818453,0.0029094482244884337,0.0019480998532366224,-0.011148658024266324,-0.002301085899935371,0.0011687680740216293,0.008105319456307531,6.02961237485813,2.86027623935258,0.38556547657201895,0.22900387437785957,0.12472200932539074,25.0,25.0,25.0,25.0,25.0,25.0,24.0,9.637,0.0,0.0,1.0,1781024420046219033
1781024420160996792,0.00040256028906735566,57.29086006346472,103.13248667774144,0.0006967371225679124,-0.0024976756462718208,-0.00017071532785849612,-0.000717333650687979,0.0022958684048530785,0.0015285506054753628,-0.008901745215420608,-0.001829292712520003,0.0009397893685736488,0.00906781616808127,6.028400759139791,2.85966934880277,0.3857884940887646,0.22931987492646955,0.12478484740368632,25.0,25.0,25.0,25.0,25.0,25.0,24.0,9.637,0.0,0.0,1.0,1781024420141617161
1781024420261395391,0.00040520867588517167,57.290925735224334,103.1325221747934,0.0006288258747663059,-0.0025236575992328607,-0.00016627496496099406,-0.0008634609821245807,0.002050610396532312,0.0013511136223608535,-0.011285828055838151,-0.0017550067882409722,0.0011137983689876846,0.08696842641421205,6.026210154577858,2.8587955898372015,0.3838571742406653,0.22917590231554685,0.12363921080611044,25.0,25.0,25.0,25.0,25.0,25.0,24.0,9.709,0.0,0.0,1.0,1781024420259008487
1781024420361558070,0.00039535113329005743,57.29088014780069,103.1324960069923,0.0006015765489887038,-0.0025153446097558175,-0.0001612195343749789,0.0009039044313912228,-0.0033964066670132565,-0.002154741014306668,0.011755497857010086,0.002432754859229935,-0.0012206017514968302,0.012888614067641555,6.024553268732466,2.8577140876583154,0.3863984758641627,0.23026169999240395,0.1249464142938883,25.0,25.0,25.0,25.0,25.0,25.0,24.0,9.637,0.0,0.0,1.0,1781024420351731597
1781024420460892582,0.0004040271062661441,57.29084972365122,103.13247873058678,0.0007129222740530627,-0.002492734703157015,-0.00017273229427117244,0.0007063957880383431,-0.0021495924950030334,-0.0014374823188085916,0.008760177246631943,0.0018022615608251043,-0.0009235854532886464,0.014369210259510806,6.022696427827093,2.85674388609863,0.38671486035885744,0.23069968964839335,0.12503309937132223,25.0,25.0,25.0,25.0,25.0,25.0,24.0,9.636,0.0,0.0,1.0,1781024420456644237
1781024420562687580,0.0004068355078945359,57.290848146193674,103.13247837992316,0.000738297915552703,-0.0024884650482976394,-0.00017566048083435262,0.0008358547109879248,-0.0026056985340365264,-0.0017107305601512645,0.010264239086130705,0.002082459039612797,-0.0010848480586907064,0.013137776911121384,6.0240094370222,2.857471658989079,0.3865406641599616,0.23036192962379123,0.12498786549995522,25.0,25.0,25.0,25.0,25.0,25.0,24.0,9.637,0.0,0.0,1.0,1781024420543707950
1781024420660979103,0.00040785195288428855,57.29084895722201,103.13247916845188,0.0007437840898404771,-0.002487764452264651,-0.00017641229032040964,0.0008942131716901692,-0.0027932638982839583,-0.0018614404808032976,0.011048207574679112,0.002265011038510143,-0.001165598192674311,0.014271641034609352,6.022771288164536,2.85680280628469,0.386726932465855,0.2306771113576369,0.1250375684420798,25.0,25.0,25.0,25.0,25.0,25.0,24.0,9.636,0.0,0.0,1.0,1781024420657751773
1781024420761802178,0.0004082599456851273,57.29084950750596,103.13247979777478,0.0007438479424322002,-0.002488014025366969,-0.00017651649367234258,0.0008203846602437433,-0.0025993502143323447,-0.0017085943779776656,0.010110964678929498,0.002055678031170656,-0.001067160774616651,0.013127307366299565,6.024028621699966,2.857484417051259,0.38654145632562525,0.2303564013004652,0.1249881883275866,25.0,25.0,25.0,25.0,25.0,25.0,24.0,9.637,0.0,0.0,1.0,1781024420755632971
1781024420863710491,0.000391566015954341,57.29095749253481,103.13254186476556,0.00045791814024643206,-0.002549500592595466,-0.00014911154924773258,-0.000641542136496818,0.0011645959371258654,0.0007294007676796151,-0.006516035505766748,-0.0010402701315346576,0.0007275369437459966,0.011565217517349052,6.025382759129794,2.8585215878691246,0.3865031427563426,0.2299927942994719,0.12498943461588811,25.0,25.0,25.0,25.0,25.0,25.0,24.0,9.637,0.0,0.0,1.0,1781024420852533458
1781024420966590149,0.00040260735258592137,57.29085676516362,103.13248223783523,0.0006785003779257786,-0.0024987945543935605,-0.00016982605969087923,0.0006922341414014972,-0.0021950666814934947,-0.0014585169966870213,0.008727501003726584,0.0018084295915140917,-0.0009150679366071384,0.014432100326085958,6.02270339946377,2.8567390811698954,0.3867003493650016,0.23070373337973604,0.1250284147701968,25.0,25.0,25.0,25.0,25.0,25.0,24.0,9.636,0.0,0.0,1.0,1781024420956109358
1781024421066848402,0.00040837711473723693,57.290845281391206,103.13247596699702,0.000742395923154502,-0.0024867366406071336,-0.00017677298567115896,0.001173879611791744,-0.003644414444699549,-0.002396316084970241,0.014404753203501158,0.002927344751972296,-0.0015240416386802188,0.014144158843623264,6.022845943003835,2.8568421615516844,0.38671993581361425,0.23066739411070475,0.12503670106297968,25.0,25.0,25.0,25.0,25.0,25.0,24.0,9.636,0.0,0.0,1.0,1781024421061727144
1781024421169747405,0.0004056789797063675,57.290860483401794,103.13248643277907,0.0006986075791023657,-0.0024963693508592323,-0.00017246332202608107,-0.0009071988909443172,0.002924235048756337,0.001953611219633438,-0.011425175105845313,-0.002348684608286502,0.001199195984515166,0.008039599401923165,6.02970953585869,2.860330398925791,0.38555808557292853,0.22897522185844385,0.12472030176781757,25.0,25.0,25.0,25.0,25.0,25.0,24.0,9.637,0.0,0.0,1.0,1781024421163579647
1781024421266958778,0.0004101323604560216,57.290848077708155,103.13247827390182,0.0007503658227358644,-0.002485911396462887,-0.00017801117294355076,0.001090125422982307,-0.0034254481703094586,-0.002265437906555336,0.013430334017562865,0.002740791440195162,-0.001418685340927132,0.014183530386034897,6.022827037737523,2.8568365662882105,0.3867281369562608,0.2306674984450101,0.12503885509399068,25.0,25.0,25.0,25.0,25.0,25.0,24.0,9.636,0.0,0.0,1.0,1781024421238628497
1781024421367615593,0.00040907287198062027,57.29085304603909,103.13248163161025,0.0007325879058159424,-0.002489595028054373,-0.00017626024278978008,0.0005432746821453319,-0.0016842041351421116,-0.0011541516157532556,0.00680481030941606,0.001420701571248756,-0.0007153655144908402,0.014467424516773464,6.022573695195222,2.8566732229696865,0.3867405711558655,0.23073093794361865,0.1250404452155022,25.0,25.0,25.0,25.0,25.0,25.0,24.0,9.636,0.0,0.0,1.0,1781024421345748549
1781024421469723956,0.0004109471454947579,57.29084804121018,103.13247851057343,0.0007520865050939155,-0.0024857508844530057,-0.00017840162970447722,0.0011124349352965427,-0.003514228482676364,-0.0023200890873437026,0.01372378291409633,0.0027984192996159305,-0.0014490552421217585,0.01412905228957917,6.022879031601512,2.856877120362489,0.3867273900909741,0.2306508625521438,0.12503897610720913,25.0,25.0,25.0,25.0,25.0,25.0,24.0,9.636,0.0,0.0,1.0,1781024421440730278
1781024421569750315,0.0004072961798391593,57.290860869167325,103.13248711236692,0.0007020818764563886,-0.0024960093280901345,-0.00017324045164851274,-0.000614377572957496,0.0019288355541620611,0.0012807797482206438,-0.007570136393541101,-0.0015506086829170569,0.00080097419954372,0.009296419891922971,6.028153500962507,2.8595558107230628,0.385843456978321,0.22937922600519628,0.124800595657477,25.0,25.0,25.0,25.0,25.0,25.0,24.0,9.637,0.0,0.0,1.0,1781024421555091027
1781024421667373257,0.000407721327693195,57.290860510165466,103.13248700340684,0.0007034606507050766,-0.0024958008587094675,-0.00017347638444767456,-0.0005905632948285824,0.0018537180249208955,0.001230881567726819,-0.007274394425353526,-0.001490168890213275,0.0007698566772175951,0.00934828948399918,6.028086671206502,2.8595231988573566,0.38585585558579705,0.229397049381365,0.12480413116631547,25.0,25.0,25.0,25.0,25.0,25.0,24.0,9.637,0.0,0.0,1.0,1781024421652783232
1781024421766958491,0.00039102237298057913,57.29091243600142,103.13251576538153,0.0004927834277999056,-0.0025368816181667656,-0.00015161548914153795,-0.000542218734133359,0.0007481265287519491,0.0007303689991492025,-0.006202086454333325,-0.0012802567393108818,0.0006635834787474238,0.005350699444545878,6.034065969370152,2.8624942269576557,0.3848035520662147,0.2277982140114054,0.12450242502953476,25.0,25.0,25.0,25.0,25.0,25.0,24.0,9.639,0.0,0.0,1.0,1781024421766713813
1781024421866756874,0.0004066190260932936,57.290853438885506,103.13248032748282,0.0006974164166699364,-0.002494517801839314,-0.00017290683396260035,0.0005630098578233412,-0.001660926089368473,-0.0011286775099007722,0.007003189271150567,0.0014548888873191278,-0.0007388920757073209,0.014513266721660872,6.0225776849635,2.856669022231865,0.38672396782500945,0.2307315754980832,0.12503516615087815,25.0,25.0,25.0,25.0,25.0,25.0,24.0,9.636,0.0,0.0,1.0,1781024421865164642
1781024421968551705,0.00041142193611084794,57.2908464342686,103.13247650856296,0.0007466389342108763,-0.0024854414279606727,-0.00017848351787068072,0.001186196971749667,-0.0037005076824002657,-0.0024311050683517854,0.014567722191799934,0.002958780632985387,-0.0015417678566810608,0.01408996727807266,6.022881699531932,2.856871150416154,0.38672484386910727,0.2306557423776357,0.1250387095923005,25.0,25.0,25.0,25.0,25.0,25.0,24.0,9.636,0.0,0.0,1.0,1781024421948192651
1781024422067367288,0.0004083695627870017,57.2908611240393,103.1324864767104,0.0007000086557883321,-0.002495395528588367,-0.00017388566324984432,-0.00091662746889226,0.002944695058972247,0.001968757383520332,-0.0115632742221143,-0.0023761582505187257,0.0012125039581442514,0.007909901428583117,6.029950112128342,2.8604630231378567,0.38552201005403935,0.2288985847344367,0.12470977789882232,25.0,25.0,25.0,25.0,25.0,25.0,24.0,9.637,0.0,0.0,1.0,1781024422065503394
1781024422168552590,0.0004116494790147669,57.290852139678606,103.13248041709016,0.0007378157582670793,-0.002487610714997022,-0.0001779798674313675,0.0007450623365795132,-0.0023272885679671645,-0.0015657571131077526,0.009258749602409922,0.0019105296029057763,-0.0009762016004311836,0.014361351339244335,6.022655503970788,2.856727513691609,0.3867407465277438,0.2307109147513255,0.1250415054735812,25.0,25.0,25.0,25.0,25.0,25.0,24.0,9.636,0.0,0.0,1.0,1781024422142872820
1781024422267155590,0.00041235270082613925,57.29085107170299,103.13247971066568,0.0007429362597428872,-0.0024865492435073295,-0.00017865349332035996,0.0008926556362418933,-0.0028065923226387344,-0.0018700844494476843,0.011054855427520213,0.002267822557161202,-0.0011667523565977332,0.014275272838637531,6.0227253134486824,2.8567724862901014,0.3867381827496956,0.23069432353987387,0.12504142286788536,25.0,25.0,25.0,25.0,25.0,25.0,24.0,9.636,0.0,0.0,1.0,1781024422258721660
1781024422367416897,0.0004127539358935495,57.29085074755313,103.13247947054096,0.0007445621166190805,-0.002486159278430611,-0.00017895387245066966,0.0009340866772667804,-0.002935208056308096,-0.001952853941063489,0.011548563345205966,0.00236688949958385,-0.001219556827889281,0.01429073185835263,6.022703913225035,2.8567528647000713,0.386739450175572,0.2307033992626411,0.12504180677099488,25.0,25.0,25.0,25.0,25.0,25.0,24.0,9.636,0.0,0.0,1.0,1781024422364188099
1781024422466967630,0.0004130854483845117,57.290850634104146,103.1324793389722,0.0007453817864971244,-0.0024859057737783253,-0.000179171252468367,0.000967707872182196,-0.003048383974945891,-0.002024008562276198,0.011967776427141247,0.0024495770941037535,-0.001263695720511323,0.014235279988434392,6.022756663980763,2.8567930003509674,0.38673782185873645,0.23068691789476592,0.12504167320535312,25.0,25.0,25.0,25.0,25.0,25.0,24.0,9.636,0.0,0.0,1.0,1781024422436329909
1781024422567003686,0.0004130689744915305,57.290851525483454,103.13247987031708,0.0007421026624332002,-0.0024864840269542285,-0.00017895369817060743,0.0008408619735039059,-0.002666012975188719,-0.0017527718529716943,0.010367546055534697,0.0021088265320664003,-0.0010957699108010371,0.013200531244231631,6.023903785782757,2.8574000489351974,0.3865608014638394,0.23039746848745624,0.12499417944993982,25.0,25.0,25.0,25.0,25.0,25.0,24.0,9.636,0.0,0.0,1.0,1781024422554810360
1781024422667345454,0.0004128080531430648,57.29085339537182,103.13248098101197,0.0007354409822026122,-0.0024876950207038417,-0.00017839867828765052,0.0006743996821294695,-0.0021036632898441036,-0.0014259148737842942,0.008407925596694996,0.0017434894514780984,-0.0008859175734418419,0.014429921053876364,6.0225984213863475,2.8566880396368672,0.386745541010195,0.2307254438671273,0.12504255220857494,25.0,25.0,25.0,25.0,25.0,25.0,24.0,9.636,0.0,0.0,1.0,1781024422659166865
1781024422767720494,0.00040968774177125455,57.29086385320224,103.13248782806974,0.0006947850119291526,-0.002495911604167624,-0.0001742011524987892,-0.0007915143178791656,0.0024929284711951777,0.0016484719302362638,-0.009760068697142918,-0.0019931040242864967,0.0010313092545941064,0.008916864339579736,6.028628947289376,2.859795339196537,0.38576263681223616,0.2292543294800382,0.12477825068708032,25.0,25.0,25.0,25.0,25.0,25.0,24.0,9.637,0.0,0.0,1.0,1781024422755710027
1781024422866922638,0.0004098578017962657,57.290864136964906,103.13248795541766,0.000693763834159822,-0.002496022105298171,-0.0001742399589297378,-0.000919110800166464,0.0029165549054321017,0.0019305911676946704,-0.011421423110028608,-0.0023324732831949578,0.0012034310749077374,0.008641423561161687,6.029127503256654,2.8600447404225564,0.3856657429572365,0.2291014166130135,0.12474923123580269,25.0,25.0,25.0,25.0,25.0,25.0,24.0,9.637,0.0,0.0,1.0,1781024422861687449
1781024422968557621,0.00041057873173978306,57.29086280164847,103.13248687793217,0.0006997426206365356,-0.002494595031250182,-0.00017501968095933278,-0.0005761705393927591,0.0018019342965683188,0.0011937505466817638,-0.0070807052713777584,-0.0014476353302163116,0.0007488621258115735,0.00936590678095334,6.028058874441167,2.859504872590849,0.38586432754484024,0.229405101894322,0.12480691662013955,25.0,25.0,25.0,25.0,25.0,25.0,24.0,9.637,0.0,0.0,1.0,1781024422959266402
1781024423070694231,0.00041419967404454535,57.29085238171819,103.13247984357334,0.0007409024691144589,-0.0024860186356287094,-0.00017955707275255515,0.0008388678983449817,-0.002656745331186565,-0.001748073368716046,0.010343771046540547,0.002104823060214851,-0.0010936227277918598,0.01319605954921414,6.023904607720495,2.8574001306109515,0.3865621798473304,0.23039749952480215,0.12499474274289836,25.0,25.0,25.0,25.0,25.0,25.0,24.0,9.636,0.0,0.0,1.0,1781024423065882690
1781024423174572769,0.0004111754297141054,57.29086265516192,103.13248662172352,0.0007005047131440586,-0.002494197691646024,-0.00017544469311311624,-0.0009284301889213582,0.002958516114517858,0.001980821161898371,-0.011713891428368725,-0.002405946001416865,0.0012274510035533426,0.007660345957256384,6.030224188306836,2.860603066686214,0.385480665967823,0.22883241951753505,0.12469901811491237,25.0,25.0,25.0,25.0,25.0,25.0,24.0,9.637,0.0,0.0,1.0,1781024423144822187
1781024423281525977,0.00041426279585772546,57.2908539764393,103.13248047555358,0.0007359224720314662,-0.0024865817116822043,-0.00017937065698900382,0.0007548333012519661,-0.002358555370280537,-0.0015894688039832829,0.009384192668721824,0.0019387150695519236,-0.0009901231308243926,0.01439130872062316,6.02262009402408,2.8567007073121973,0.38674715860127096,0.2307218262253404,0.12504351920791298,25.0,25.0,25.0,25.0,25.0,25.0,24.0,9.636,0.0,0.0,1.0,1781024423269759956
1781024423382244035,0.0004147600844856887,57.29085312213475,103.1324797078449,0.0007396595132798605,-0.0024856010825517723,-0.00017993169402918762,0.0008619949419857641,-0.0027276761623909237,-0.001795961707735536,0.01062958473666976,0.0021637629220918383,-0.0011241439841276296,0.013256936634379756,6.02383132743637,2.85736026260106,0.3865746925234283,0.23041650201205924,0.12499826361404397,25.0,25.0,25.0,25.0,25.0,25.0,24.0,9.636,0.0,0.0,1.0,1781024423378240814
1781024423483551668,0.00041133757093070105,57.290864614895874,103.132487066608,0.0006954106121243071,-0.0024943933297105017,-0.0001753980172094986,-0.0006386597445730508,0.002000218241913809,0.0013223416323058887,-0.00785080231232861,-0.0016024882180682254,0.0008296559664114279,0.009237639195430344,6.028212700989051,2.8595823978854966,0.385838331433214,0.22936495962771744,0.12479980877783506,25.0,25.0,25.0,25.0,25.0,25.0,24.0,9.637,0.0,0.0,1.0,1781024423467821213
1781024423582104682,0.0004112922353908615,57.29086552075849,103.13248746617047,0.0006920940546296778,-0.0024948423447553364,-0.00017524809134454732,-0.0009243198897621366,0.0029322822756528734,0.001946047191880283,-0.011531107928585336,-0.002356890680666984,0.0012124460209661809,0.008335109836700775,6.029467177119478,2.8602161104471677,0.3856099517940941,0.22901736632093908,0.12473427244386566,25.0,25.0,25.0,25.0,25.0,25.0,24.0,9.637,0.0,0.0,1.0,1781024423575814821
1781024423685545557,0.0004110893181862934,57.29086697985458,103.13248802071504,0.0006875834386110131,-0.0024953723742018228,-0.00017495968571331393,-0.0008609437499824099,0.0027081062548950357,0.0017873996343714424,-0.010607842972283954,-0.0021625362442212154,0.0011200542849130126,0.008763870223013932,6.028811396808286,2.8598854274295333,0.3857328881160042,0.22920633950277172,0.1247702129908233,25.0,25.0,25.0,25.0,25.0,25.0,24.0,9.637,0.0,0.0,1.0,1781024423678405882
1781024423782130203,0.000411510452200915,57.29086643646545,103.1324872871845,0.0006905582527355626,-0.002494391283282832,-0.00017548506899026366,-0.0006989529717033415,0.0021901615057419326,0.001446172660733063,-0.00859411170903455,-0.001752406455817858,0.0009076640616211156,0.009106033498149986,6.028374986461644,2.859661801112049,0.3858099547376386,0.22932222760017068,0.1247919273183426,25.0,25.0,25.0,25.0,25.0,25.0,24.0,9.637,0.0,0.0,1.0,1781024423775169758
1781024423882648850,0.0004112683871065734,57.2908678990819,103.13248789409988,0.0006854735828810681,-0.0024950656119590757,-0.00017516946883564647,-0.0009213390660006576,0.0029142020428939703,0.0019240025245252312,-0.011417727959703356,-0.0023267681150207237,0.00120272429468347,0.008690678229291555,6.0290552944188205,2.86000517290072,0.3856810794810064,0.2291193945437764,0.12475384648067152,25.0,25.0,25.0,25.0,25.0,25.0,24.0,9.637,0.0,0.0,1.0,1781024423871924564
1781024423982536420,0.0004145172694838175,57.2908583980614,103.13248121440516,0.0007238638174687052,-0.002486850471614399,-0.0001794098487241836,0.0006027893266565792,-0.0018701920731177175,-0.0012822268227330115,0.007549698212112439,0.00157638629369697,-0.0007960622530771725,0.014450338279963847,6.0225655963199785,2.856662741880686,0.386750519538733,0.23073418099220716,0.12504418734391165,25.0,25.0,25.0,25.0,25.0,25.0,24.0,9.636,0.0,0.0,1.0,1781024423943296002
1781024424082553397,0.00041499120373700207,57.29085747590059,103.13248015866574,0.0007282148884759244,-0.0024855250197913254,-0.00018010166432205917,0.000742971262252356,-0.0023514842206374567,-0.0015502684262929467,0.009169636783079022,0.0018681088759152863,-0.0009707894521988218,0.012920384542374876,6.024198309312679,2.857546406069076,0.3865155729684413,0.23032461982556016,0.12498246157185404,25.0,25.0,25.0,25.0,25.0,25.0,24.0,9.636,0.0,0.0,1.0,1781024424076399731
1781024424185575984,0.0004116371925726064,57.29086904613618,103.1324871695001,0.0006842102279093767,-0.0024938772227993187,-0.00017580016947780775,-0.0009250173038350678,0.0029232854088704968,0.0019406240006253391,-0.011530206210165086,-0.0023557188266907533,0.0012113494743735723,0.008089720053049644,6.029649690124755,2.8603089498070533,0.385586012822408,0.2289838926618877,0.12472913672109336,25.0,25.0,25.0,25.0,25.0,25.0,24.0,9.637,0.0,0.0,1.0,1781024424174613874
1781024424282405122,0.0004120136531005819,57.29086861117098,103.1324863070796,0.0006870113445325082,-0.0024927451194096677,-0.00017639098872775715,-0.0009281740085538,0.0029461597210254336,0.001967584899728767,-0.011687490343115508,-0.0023944834519088426,0.001223182847439525,0.007625955226109207,6.0302199454730525,2.860592646572154,0.3854831798443431,0.22883547036346943,0.12470031355566852,25.0,25.0,25.0,25.0,25.0,25.0,24.0,9.637,0.0,0.0,1.0,1781024424282225000
1781024424381863316,0.0004148488488860295,57.29086025118121,103.13248010519229,0.0007217669702305386,-0.0024850521364426256,-0.00018026037017538184,0.0007700348866745874,-0.0024006614411525404,-0.0016203904139277295,0.009572213778167858,0.0019792004473508673,-0.001012122449698331,0.01433452456575452,6.022639565460869,2.856702289865372,0.3867468144860504,0.23072062112488131,0.1250441468924629,25.0,25.0,25.0,25.0,25.0,25.0,24.0,9.636,0.0,0.0,1.0,1781024424359801896
1781024424481859200,0.0004155923540599694,57.29085859518105,103.13247825517185,0.0007300352089954634,-0.002482673329314368,-0.00018143730926111032,0.0010836810317438558,-0.003389831771178264,-0.0022546051510722235,0.013368764052123026,0.002736770541327171,-0.0014153533539042371,0.014162595880350183,6.022798736284684,2.8568073901221616,0.3867397598453629,0.23067899801106811,0.1250433416994168,25.0,25.0,25.0,25.0,25.0,25.0,24.0,9.636,0.0,0.0,1.0,1781024424475632440
1781024424585546944,0.0004151628339190612,57.29086075363979,103.13247877726651,0.0007238159431149857,-0.002483111404730522,-0.00018111731554287577,0.0009963917139951717,-0.003116644984475065,-0.002081543698137455,0.01232840769003694,0.0025302435436199084,-0.0013045013896754655,0.01415037114852861,6.022828591833654,2.8568345497418153,0.3867381153129983,0.23066414079340317,0.12504277709169284,25.0,25.0,25.0,25.0,25.0,25.0,24.0,9.636,0.0,0.0,1.0,1781024424569308615
1781024424681889049,0.0004152842082492328,57.29086112580364,103.13247804325148,0.0007247958373543862,-0.002482024764868655,-0.00018157315742715376,0.0011140927463470424,-0.00349029297796343,-0.002318618183188308,0.013749546766636544,0.002811329223224778,-0.001455620517620794,0.013881783596348791,6.023127031046685,2.8570102363168015,0.38670358876784067,0.2305827855680398,0.12503396950007634,25.0,25.0,25.0,25.0,25.0,25.0,24.0,9.636,0.0,0.0,1.0,1781024424674970903
1781024424782625732,0.0004148916153871795,57.29086324559152,103.1324782957094,0.0007195310127555173,-0.0024820639547464152,-0.0001814037432669816,0.0010664965231610062,-0.0033299404026991804,-0.0022246701878207305,0.01318558814396681,0.002705321358225588,-0.0013956462823429751,0.014074428866383808,6.022933372161504,2.856907940072269,0.3867322593070191,0.23062809552686747,0.1250414320116283,25.0,25.0,25.0,25.0,25.0,25.0,24.0,9.636,0.0,0.0,1.0,1781024424765330870
1781024424882775172,0.00041099595122711703,57.29087622547233,103.13248603382686,0.0006705087172217284,-0.0024912718442777694,-0.0001765673083659078,-0.0009216858448018858,0.0029125313179930853,0.0019439552545482016,-0.011590705934874945,-0.002370062674470808,0.0012104562738333813,0.007689340476260261,6.029992907500705,2.8604322221679106,0.3855081463287097,0.22891701751377047,0.1247082017490466,25.0,25.0,25.0,25.0,25.0,25.0,24.0,9.637,0.0,0.0,1.0,1781024424868573846
1781024424983537899,0.00040993142217677535,57.290880654787294,103.132487321365,0.0006583273593537755,-0.002492346154069464,-0.0001756840899310935,-0.00091178411236789,0.002865549031174581,0.0018859363530083907,-0.011271570117365372,-0.0022877090471054647,0.0011837344998950126,0.00864673504166973,6.028938177310819,2.85990451848761,0.3856926290856599,0.2291684456063192,0.1247583544514122,25.0,25.0,25.0,25.0,25.0,25.0,24.0,9.637,0.0,0.0,1.0,1781024424968964675
1781024425083584691,0.0004095702161615525,57.29088311642872,103.13248719342448,0.0006543003134948682,-0.0024916563791193983,-0.00017572315250491413,-0.0009099031769040668,0.0028598783454066123,0.0018810044895344,-0.011251577468819903,-0.0022822287323608003,0.001180926557827633,0.008600045510215693,6.028974933095495,2.859920807841851,0.3856864914139667,0.22916009795921025,0.12475683489424362,25.0,25.0,25.0,25.0,25.0,25.0,24.0,9.637,0.0,0.0,1.0,1781024425076948096
1781024425182533717,0.00040914366509958754,57.29088596848678,103.13248710194324,0.000649678968710343,-0.002490906685127003,-0.00017573982861454556,-0.0009089595055784484,0.002849964659854946,0.001875264278058721,-0.011227657256581995,-0.0022776550376035916,0.001178281384919513,0.008373276390253415,6.02910784671219,2.8599883839307707,0.3856706249872898,0.22914605105025873,0.12475419429882716,25.0,25.0,25.0,25.0,25.0,25.0,24.0,9.637,0.0,0.0,1.0,1781024425171645866
1781024425284597298,0.000408426020490807,57.29088986562732,103.13248743260289,0.0006421124415173994,-0.002490547724794821,-0.00017547257991488448,-0.0009043711791357706,0.0028277978014073077,0.0018516379491399816,-0.011104674220417828,-0.002246444176451126,0.001167186574065588,0.00856501068545567,6.02886098155792,2.859868753576333,0.38571827215331467,0.22920772081020377,0.1247677075820291,25.0,25.0,25.0,25.0,25.0,25.0,24.0,9.637,0.0,0.0,1.0,1781024425265493651
1781024425382662605,0.00040860758568225504,57.29089118591703,103.1324859518163,0.0006450223568570535,-0.0024879467859510733,-0.00017639033586246112,-0.0009078840204101904,0.00285979022613344,0.0018953440941546504,-0.011360600486262166,-0.0023110331001814297,0.0011851966302207858,0.007744019639319278,6.029834265100513,2.8603433478453355,0.3855397145168986,0.22895896410011293,0.12471784918365487,25.0,25.0,25.0,25.0,25.0,25.0,24.0,9.637,0.0,0.0,1.0,1781024425357911358
1781024425484541982,0.0004112872495091033,57.29088552024964,103.13247854368156,0.0006810956011625941,-0.0024775548569808885,-0.00018096327172869775,0.0009457743946375192,-0.002924645017385418,-0.001971918563172653,0.01169433721183201,0.0024115241894154737,-0.0012420398684573617,0.013365812031722974,6.023639469155455,2.8572674222013483,0.386623205424075,0.23045263500735183,0.125012983547391,25.0,25.0,25.0,25.0,25.0,25.0,24.0,9.636,0.0,0.0,1.0,1781024425472012242
