timestamp_ns,joint_1_pos,joint_2_pos,joint_3_pos,joint_4_pos,joint_5_pos,joint_6_pos,joint_1_vel,joint_2_vel,joint_3_vel,joint_4_vel,joint_5_vel,joint_6_vel,joint_1_current,joint_2_current,joint_3_current,joint_4_current,joint_5_current,joint_6_current,joint_1_temp,joint_2_temp,joint_3_temp,joint_4_temp,joint_5_temp,joint_6_temp,bus_voltage,bus_current,accel_x,accel_y,accel_z,timestamp_ns
1777842485052760728,-8.367961748610744e+17,6.019655227661133,-8.367961748610744e+17,6.019655227661133,0.0,0.0,1.503630969734715e-10,6.019651889801025,1.503630969734715e-10,6.019651889801025,0.0,0.0,0.061362724751234055,6.0196428298950195,0.061362724751234055,6.0196428298950195,0.0,0.0,0.0,0.0,0.0,0.0,0.0,0.0,23.830747604370117,0.0,0.0,0.0,0.0,1777842485024468575
1777842485153277633,-8.367961748610744e+17,6.019655227661133,-8.367961748610744e+17,6.019655227661133,0.0,0.0,1.503630969734715e-10,6.019651889801025,1.503630969734715e-10,6.019651889801025,0.0,0.0,0.061362724751234055,6.0196428298950195,0.061362724751234055,6.0196428298950195,0.0,0.0,0.0,0.0,0.0,0.0,0.0,0.0,23.830747604370117,0.0,0.0,0.0,0.0,1777842485024468575
1777842485253280072,-0.22321423888206482,-0.22321423888206482,-0.009765625,-0.3246753215789795,-0.3246753215789795,-1.401298464324817e-45,-4.227182482906467e+37,6.019662857055664,-4.227182482906467e+37,6.019662857055664,0.0,0.0,275.0096435546875,175.00930786132812,78.9898910522461,243.0089111328125,84.0066146850586,74.99188232421875,0.0,0.0,0.0,0.0,0.0,0.0,23.830747604370117,0.0,0.0,0.0,0.0,1777842485208751158
1777842485353268030,0.004833959974348545,0.0,-0.05236789956688881,0.0024169799871742725,0.03303205966949463,-0.0040282998234033585,-8.36798099006423e+17,6.019670486450195,-8.36798099006423e+17,6.019670486450195,0.0,0.0,275.0096435546875,175.00930786132812,78.9898910522461,243.0089111328125,84.0066146850586,74.99188232421875,0.0,0.0,0.0,0.0,0.0,0.0,23.830747604370117,0.0,0.0,0.0,0.0,1777842485267321417
1777842485453275544,27441070.0,6.019679546356201,27441070.0,6.019679546356201,0.0,0.0,-8.36798099006423e+17,6.019670486450195,-8.36798099006423e+17,6.019670486450195,0.0,0.0,275.0096435546875,175.00930786132812,78.9898910522461,243.0089111328125,84.0066146850586,74.99188232421875,0.0,0.0,0.0,0.0,0.0,0.0,23.830747604370117,0.0,0.0,0.0,0.0,1777842485429473350
1777842485553255632,-0.22321423888206482,-0.22321423888206482,-0.009765625,-0.3246753215789795,-0.3246753215789795,-1.401298464324817e-45,0.004833959974348545,0.0008056599763222039,-0.04914525896310806,0.0008056599763222039,0.03947733715176582,-0.0040282998234033585,-7.96623208858982e-36,6.019689083099365,-7.96623208858982e-36,6.019689083099365,0.0,0.0,0.0,0.0,0.0,0.0,0.0,0.0,23.830747604370117,0.0,0.0,0.0,0.0,1777842485526117223
1777842485653284738,-0.22321423888206482,-0.22321423888206482,-0.009765625,-0.3246753215789795,-0.3246753215789795,-1.401298464324817e-45,-163764703854592.0,6.019692897796631,-163764703854592.0,6.019692897796631,0.0,0.0,-7.96623208858982e-36,6.019689083099365,-7.96623208858982e-36,6.019689083099365,0.0,0.0,0.0,0.0,0.0,0.0,0.0,0.0,23.830747604370117,0.0,0.0,0.0,0.0,1777842485608478471
1777842485753278474,18.489912033081055,6.0196990966796875,18.489912033081055,6.0196990966796875,0.0,0.0,-163764703854592.0,6.019692897796631,-163764703854592.0,6.019692897796631,0.0,0.0,-7.96623208858982e-36,6.019689083099365,-7.96623208858982e-36,6.019689083099365,0.0,0.0,0.0,0.0,0.0,0.0,0.0,0.0,23.830747604370117,0.0,0.0,0.0,0.0,1777842485716222419
1777842485853273913,-112985880.0,6.019704818725586,-112985880.0,6.019704818725586,0.0,0.0,-163764703854592.0,6.019692897796631,-163764703854592.0,6.019692897796631,0.0,0.0,-7.96623208858982e-36,6.019689083099365,-7.96623208858982e-36,6.019689083099365,0.0,0.0,0.0,0.0,0.0,0.0,0.0,0.0,23.830747604370117,0.0,0.0,0.0,0.0,1777842485810702655
1777842485953289649,-112985880.0,6.019704818725586,-112985880.0,6.019704818725586,0.0,0.0,-163764703854592.0,6.019692897796631,-163764703854592.0,6.019692897796631,0.0,0.0,-7.96623208858982e-36,6.019689083099365,-7.96623208858982e-36,6.019689083099365,0.0,0.0,0.0,0.0,0.0,0.0,0.0,0.0,23.830747604370117,0.0,0.0,0.0,0.0,1777842485810702655
1777842486053279867,-112985880.0,6.019704818725586,-112985880.0,6.019704818725586,0.0,0.0,-163764703854592.0,6.019692897796631,-163764703854592.0,6.019692897796631,0.0,0.0,0.004833959974348545,0.0,-0.055590540170669556,0.0016113199526444077,0.035449039191007614,-0.006445279810577631,28.139999389648438,27.100000381469727,29.510000228881836,28.139999389648438,30.799999237060547,31.93000030517578,23.830747604370117,0.1031244769692421,-0.15897631645202637,-0.0061651067808270454,-1.1406934261322021,1777842485810702655
1777842486153275528,275.1227722167969,175.05899047851562,78.68280029296875,243.10154724121094,84.33280944824219,74.83920288085938,-0.22321423888206482,-0.22321423888206482,-0.009765625,-0.3246753215789795,-0.3246753215789795,-1.401298464324817e-45,0.0,0.0016113199526444077,-0.05317355692386627,0.0,0.03464337810873985,-0.007250939961522818,28.139999389648438,27.18000030517578,29.510000228881836,28.219999313354492,30.719999313354492,32.0099983215332,23.830747604370117,0.10795843601226807,-0.15697081387043,-0.00793894100934267,-1.139569640159607,1777842486073325621
1777842486253285727,275.1227722167969,175.05899047851562,78.68280029296875,243.10154724121094,84.33280944824219,74.83920288085938,-0.22321423888206482,-0.22321423888206482,-0.009765625,-0.3246753215789795,-0.3246753215789795,-1.401298464324817e-45,0.0,0.0016113199526444077,-0.05317355692386627,0.0,0.03464337810873985,-0.007250939961522818,28.139999389648438,27.18000030517578,29.510000228881836,28.219999313354492,30.719999313354492,32.0099983215332,23.830747604370117,0.10795843601226807,-0.15697081387043,-0.00793894100934267,-1.139569640159607,1777842486214467870
1777842486353282685,275.1227722167969,175.05899047851562,78.68280029296875,243.10154724121094,84.33280944824219,74.83920288085938,-0.22321423888206482,-0.22321423888206482,-0.009765625,-0.3246753215789795,-0.3246753215789795,-1.401298464324817e-45,0.0,0.0016113199526444077,-0.05317355692386627,0.0,0.03464337810873985,-0.007250939961522818,28.139999389648438,27.18000030517578,29.510000228881836,28.219999313354492,30.719999313354492,32.0099983215332,23.830747604370117,0.10795843601226807,-0.15697081387043,-0.00793894100934267,-1.139569640159607,1777842486214467870
1777842486453269218,275.1227722167969,175.05899047851562,78.68280029296875,243.10154724121094,84.33280944824219,74.83920288085938,-0.22321423888206482,-0.22321423888206482,-0.009765625,-0.3246753215789795,-0.3246753215789795,-1.401298464324817e-45,0.0,0.0016113199526444077,-0.05317355692386627,0.0,0.03464337810873985,-0.007250939961522818,28.139999389648438,27.18000030517578,29.510000228881836,28.219999313354492,30.719999313354492,32.0099983215332,23.830747604370117,0.10795843601226807,-0.15697081387043,-0.00793894100934267,-1.139569640159607,1777842486214467870
1777842486553304842,275.1227722167969,175.05899047851562,78.68280029296875,243.10154724121094,84.33280944824219,74.83920288085938,-0.22321423888206482,-0.22321423888206482,-0.009765625,-0.3246753215789795,-0.3246753215789795,-1.401298464324817e-45,0.0,0.0016113199526444077,-0.05317355692386627,0.0,0.03464337810873985,-0.007250939961522818,28.139999389648438,27.18000030517578,29.510000228881836,28.219999313354492,30.719999313354492,32.0099983215332,23.830747604370117,0.10795843601226807,-0.15697081387043,-0.00793894100934267,-1.139569640159607,1777842486214467870
1777842486653307060,-1.4917477550054355e+35,6.019728660583496,-1.4917477550054355e+35,6.019728660583496,0.0,0.0,275.1227722167969,175.05899047851562,78.68280029296875,243.10154724121094,84.33280944824219,74.83920288085938,0.0024169799871742725,0.0,-0.05156223848462105,0.0,0.03706035763025284,-0.005639619659632444,28.059999465942383,27.18000030517578,29.59000015258789,28.309999465942383,30.799999237060547,31.850000381469727,23.830747604370117,0.10231882333755493,-0.15705108642578125,-0.004896719940006733,-1.1408395767211914,1777842486602284624
1777842486753306722,-0.22321423888206482,-0.22321423888206482,-0.009765625,-0.3246753215789795,-0.3246753215789795,-1.401298464324817e-45,0.0016113199526444077,0.0,-0.049950920045375824,0.0008056599763222039,0.03464337810873985,-0.005639619659632444,275.0096435546875,175.00930786132812,78.9898910522461,243.0089111328125,84.0066146850586,74.99188232421875,0.0,0.0,0.0,0.0,0.0,0.0,23.830747604370117,0.0,0.0,0.0,0.0,1777842486690242910
1777842486853299346,0.007250939961522818,0.0008056599763222039,-0.05639619752764702,0.0024169799871742725,0.03947733715176582,-0.004833959974348545,7849614848.0,6.019751071929932,7849614848.0,6.019751071929932,0.0,0.0,275.1227722167969,175.05899047851562,78.68280029296875,243.10154724121094,84.33280944824219,74.83920288085938,0.0,0.0,0.0,0.0,0.0,0.0,23.830747604370117,0.0,0.0,0.0,0.0,1777842486790434258
1777842486953307379,-0.00005260109537630342,6.019759178161621,-0.00005260109537630342,6.019759178161621,0.0,0.0,0.0040282998234033585,0.0,-0.05075657740235329,0.0016113199526444077,0.0378660187125206,-0.0040282998234033585,-4.617841649829054e-37,6.0197601318359375,-4.617841649829054e-37,6.0197601318359375,0.0,0.0,28.139999389648438,27.18000030517578,29.510000228881836,28.309999465942383,30.799999237060547,32.0099983215332,23.830747604370117,0.09587354212999344,-0.15727002918720245,-0.009365081787109375,-1.1397591829299927,1777842486890417420
1777842487053301966,-0.00005260109537630342,6.019759178161621,-0.00005260109537630342,6.019759178161621,0.0,0.0,0.0040282998234033585,0.0,-0.05075657740235329,0.0016113199526444077,0.0378660187125206,-0.0040282998234033585,-4.617841649829054e-37,6.0197601318359375,-4.617841649829054e-37,6.0197601318359375,0.0,0.0,28.139999389648438,27.18000030517578,29.510000228881836,28.309999465942383,30.799999237060547,32.0099983215332,23.830747604370117,0.09587354212999344,-0.15727002918720245,-0.009365081787109375,-1.1397591829299927,1777842486890417420
1777842487153291924,-0.00005260109537630342,6.019759178161621,-0.00005260109537630342,6.019759178161621,0.0,0.0,0.004833959974348545,0.0008056599763222039,-0.05236789956688881,0.0024169799871742725,0.03222639858722687,-0.007250939961522818,-4.617841649829054e-37,6.0197601318359375,-4.617841649829054e-37,6.0197601318359375,0.0,0.0,28.139999389648438,27.18000030517578,29.59000015258789,28.309999465942383,30.799999237060547,32.0099983215332,23.830747604370117,0.10634711384773254,-0.15654046833515167,-0.00906229019165039,-1.1398541927337646,1777842486890417420
1777842487253290290,-0.00005260109537630342,6.019759178161621,-0.00005260109537630342,6.019759178161621,0.0,0.0,275.1227722167969,175.05899047851562,78.68280029296875,243.10154724121094,84.33280944824219,74.83920288085938,-4.617841649829054e-37,6.0197601318359375,-4.617841649829054e-37,6.0197601318359375,0.0,0.0,28.139999389648438,27.18000030517578,29.59000015258789,28.309999465942383,30.799999237060547,32.0099983215332,23.830747604370117,0.10634711384773254,-0.15654046833515167,-0.00906229019165039,-1.1398541927337646,1777842486890417420
1777842487353279692,-0.00005260109537630342,6.019759178161621,-0.00005260109537630342,6.019759178161621,0.0,0.0,275.1227722167969,175.05899047851562,78.68280029296875,243.10154724121094,84.33280944824219,74.83920288085938,-4.617841649829054e-37,6.0197601318359375,-4.617841649829054e-37,6.0197601318359375,0.0,0.0,28.139999389648438,27.18000030517578,29.59000015258789,28.309999465942383,30.799999237060547,32.0099983215332,23.830747604370117,0.10634711384773254,-0.15654046833515167,-0.00906229019165039,-1.1398541927337646,1777842486890417420
1777842487453304021,-1.042356336742269e+29,6.019786357879639,-1.042356336742269e+29,6.019786357879639,0.0,0.0,275.0096435546875,175.00930786132812,78.9898910522461,243.0089111328125,84.0066146850586,74.99188232421875,275.1227722167969,175.05899047851562,78.68280029296875,243.10154724121094,84.33280944824219,74.83920288085938,0.0,0.0,0.0,0.0,0.0,0.0,23.830747604370117,0.0,0.0,0.0,0.0,1777842487402311788
1777842487553304590,275.0096435546875,175.00930786132812,78.9898910522461,243.0089111328125,84.0066146850586,74.99188232421875,275.1227722167969,175.05899047851562,78.68280029296875,243.10154724121094,84.33280944824219,74.83920288085938,-1.367065376900891e-34,6.019801139831543,-1.367065376900891e-34,6.019801139831543,0.0,0.0,0.0,0.0,0.0,0.0,0.0,0.0,23.830747604370117,0.0,0.0,0.0,0.0,1777842487501236150
1777842487653312771,0.005639619659632444,0.0008056599763222039,-0.05075657740235329,0.0008056599763222039,0.036254700273275375,-0.006445279810577631,-0.22321423888206482,-0.22321423888206482,-0.009765625,-0.3246753215789795,-0.3246753215789795,-1.401298464324817e-45,-1910877824.0,6.019809246063232,-1910877824.0,6.019809246063232,0.0,0.0,28.139999389648438,27.18000030517578,29.43000030517578,28.139999389648438,30.799999237060547,31.93000030517578,23.830747604370117,0.10634711384773254,-0.15707333385944366,-0.005085070617496967,-1.1415691375732422,1777842487601346238
1777842487753299432,0.005639619659632444,0.0008056599763222039,-0.05075657740235329,0.0008056599763222039,0.036254700273275375,-0.006445279810577631,-0.22321423888206482,-0.22321423888206482,-0.009765625,-0.3246753215789795,-0.3246753215789795,-1.401298464324817e-45,-1910877824.0,6.019809246063232,-1910877824.0,6.019809246063232,0.0,0.0,28.139999389648438,27.18000030517578,29.43000030517578,28.139999389648438,30.799999237060547,31.93000030517578,23.830747604370117,0.10634711384773254,-0.15707333385944366,-0.005085070617496967,-1.1415691375732422,1777842487601346238
1777842487853313465,0.005639619659632444,0.0008056599763222039,-0.05075657740235329,0.0008056599763222039,0.036254700273275375,-0.006445279810577631,-0.22321423888206482,-0.22321423888206482,-0.009765625,-0.3246753215789795,-0.3246753215789795,-1.401298464324817e-45,-1910877824.0,6.019809246063232,-1910877824.0,6.019809246063232,0.0,0.0,0.0,0.0,0.0,0.0,0.0,0.0,23.830747604370117,0.0,0.0,0.0,0.0,1777842487601346238
1777842487953311274,0.0032226399052888155,0.0,-0.05156223848462105,0.007250939961522818,0.03383772075176239,-0.011279239319264889,-1.195587276099988e-13,6.019836902618408,-1.195587276099988e-13,6.019836902618408,0.0,0.0,-1910877824.0,6.019809246063232,-1910877824.0,6.019809246063232,0.0,0.0,0.0,0.0,0.0,0.0,0.0,0.0,23.830747604370117,0.0,0.0,0.0,0.0,1777842487942489589
1777842488053337010,-2.514434879295077e+36,6.019840717315674,-2.514434879295077e+36,6.019840717315674,0.0,0.0,-1.195587276099988e-13,6.019836902618408,-1.195587276099988e-13,6.019836902618408,0.0,0.0,-1910877824.0,6.019809246063232,-1910877824.0,6.019809246063232,0.0,0.0,0.0,0.0,0.0,0.0,0.0,0.0,23.830747604370117,0.0,0.0,0.0,0.0,1777842488048953829
1777842488153324913,-2.514434879295077e+36,6.019840717315674,-2.514434879295077e+36,6.019840717315674,0.0,0.0,-1.195587276099988e-13,6.019836902618408,-1.195587276099988e-13,6.019836902618408,0.0,0.0,-1910877824.0,6.019809246063232,-1910877824.0,6.019809246063232,0.0,0.0,0.0,0.0,0.0,0.0,0.0,0.0,23.830747604370117,0.0,0.0,0.0,0.0,1777842488048953829
1777842488253329038,-0.22321423888206482,-0.22321423888206482,-0.009765625,-0.3246753215789795,-0.3246753215789795,-1.401298464324817e-45,1.9193900301959554e-36,6.019854545593262,1.9193900301959554e-36,6.019854545593262,0.0,0.0,-6659099.5,6.019852161407471,-6659099.5,6.019852161407471,0.0,0.0,0.0,0.0,0.0,0.0,0.0,0.0,23.830747604370117,0.0,0.0,0.0,0.0,1777842488233176949
1777842488353353218,-0.22321423888206482,-0.22321423888206482,-0.009765625,-0.3246753215789795,-0.3246753215789795,-1.401298464324817e-45,1.9193900301959554e-36,6.019854545593262,1.9193900301959554e-36,6.019854545593262,0.0,0.0,-6659099.5,6.019852161407471,-6659099.5,6.019852161407471,0.0,0.0,0.0,0.0,0.0,0.0,0.0,0.0,23.830747604370117,0.0,0.0,0.0,0.0,1777842488233176949
1777842488453346843,-0.22321423888206482,-0.22321423888206482,-0.009765625,-0.3246753215789795,-0.3246753215789795,-1.401298464324817e-45,1.9193900301959554e-36,6.019854545593262,1.9193900301959554e-36,6.019854545593262,0.0,0.0,275.1227722167969,175.05899047851562,78.68280029296875,243.10154724121094,84.33280944824219,74.83920288085938,0.0,0.0,0.0,0.0,0.0,0.0,23.830747604370117,0.0,0.0,0.0,0.0,1777842488233176949
1777842488553318282,-0.22321423888206482,-0.22321423888206482,-0.009765625,-0.3246753215789795,-0.3246753215789795,-1.401298464324817e-45,0.0032226399052888155,0.0,-0.055590540170669556,0.0,0.03383772075176239,-0.007250939961522818,275.1227722167969,175.05899047851562,78.68280029296875,243.10154724121094,84.33280944824219,74.83920288085938,0.0,0.0,0.0,0.0,0.0,0.0,23.830747604370117,0.0,0.0,0.0,0.0,1777842488543470841
1777842488653312315,-0.22321423888206482,-0.22321423888206482,-0.009765625,-0.3246753215789795,-0.3246753215789795,-1.401298464324817e-45,0.0032226399052888155,0.0,-0.055590540170669556,0.0,0.03383772075176239,-0.007250939961522818,275.1227722167969,175.05899047851562,78.68280029296875,243.10154724121094,84.33280944824219,74.83920288085938,0.0,0.0,0.0,0.0,0.0,0.0,23.830747604370117,0.0,0.0,0.0,0.0,1777842488543470841
1777842488753318606,0.005639619659632444,0.0,-0.05236789956688881,0.0008056599763222039,0.03706035763025284,-0.006445279810577631,2.356759178721738e-25,6.01987886428833,2.356759178721738e-25,6.01987886428833,0.0,0.0,275.1227722167969,175.05899047851562,78.68280029296875,243.10154724121094,84.33280944824219,74.83920288085938,0.0,0.0,0.0,0.0,0.0,0.0,23.830747604370117,0.0,0.0,0.0,0.0,1777842488661472361
1777842488853327638,0.005639619659632444,0.0,-0.05236789956688881,0.0008056599763222039,0.03706035763025284,-0.006445279810577631,2.356759178721738e-25,6.01987886428833,2.356759178721738e-25,6.01987886428833,0.0,0.0,275.1227722167969,175.05899047851562,78.68280029296875,243.10154724121094,84.33280944824219,74.83920288085938,0.0,0.0,0.0,0.0,0.0,0.0,23.830747604370117,0.0,0.0,0.0,0.0,1777842488661472361
1777842488953335893,0.004833959974348545,0.0,-0.05236789956688881,0.0032226399052888155,0.03867167979478836,-0.006445279810577631,0.00021626708621624857,6.01988410949707,0.00021626708621624857,6.01988410949707,0.0,0.0,275.0096435546875,175.00930786132812,78.9898910522461,243.0089111328125,84.0066146850586,74.99188232421875,0.0,0.0,0.0,0.0,0.0,0.0,23.830747604370117,0.0,0.0,0.0,0.0,1777842488935184904
1777842489053328388,-4.2272889655568864e+37,6.019891738891602,-4.2272889655568864e+37,6.019891738891602,0.0,0.0,275.1227722167969,175.05899047851562,78.68280029296875,243.10154724121094,84.33280944824219,74.83920288085938,-0.22321423888206482,-0.22321423888206482,-0.009765625,-0.3246753215789795,-0.3246753215789795,-1.401298464324817e-45,0.0,0.0,0.0,0.0,0.0,0.0,23.830747604370117,0.0,0.0,0.0,0.0,1777842489011422316
1777842489153347439,275.0096435546875,175.00930786132812,78.9898910522461,243.0089111328125,84.0066146850586,74.99188232421875,4.321624574186734e+29,6.019903659820557,4.321624574186734e+29,6.019903659820557,0.0,0.0,-0.22321423888206482,-0.22321423888206482,-0.009765625,-0.3246753215789795,-0.3246753215789795,-1.401298464324817e-45,28.219999313354492,27.100000381469727,29.59000015258789,28.219999313354492,30.799999237060547,32.0099983215332,23.830747604370117,0.09506788104772568,-0.15765705704689026,-0.010120471008121967,-1.1390224695205688,1777842489111501219
1777842489253339711,275.0096435546875,175.00930786132812,78.9898910522461,243.0089111328125,84.0066146850586,74.99188232421875,4.321624574186734e+29,6.019903659820557,4.321624574186734e+29,6.019903659820557,0.0,0.0,-0.22321423888206482,-0.22321423888206482,-0.009765625,-0.3246753215789795,-0.3246753215789795,-1.401298464324817e-45,28.219999313354492,27.100000381469727,29.59000015258789,28.219999313354492,30.799999237060547,32.0099983215332,23.830747604370117,0.09506788104772568,-0.15765705704689026,-0.010120471008121967,-1.1390224695205688,1777842489111501219
1777842489353322410,0.005639619659632444,0.0,-0.05317355692386627,0.0024169799871742725,0.035449039191007614,-0.00966791994869709,-2.66053973630932e-38,6.019922733306885,-2.66053973630932e-38,6.019922733306885,0.0,0.0,-0.22321423888206482,-0.22321423888206482,-0.009765625,-0.3246753215789795,-0.3246753215789795,-1.401298464324817e-45,0.0,0.0,0.0,0.0,0.0,0.0,23.830747604370117,0.0,0.0,0.0,0.0,1777842489346924073
1777842489453347683,0.005639619659632444,0.0,-0.05317355692386627,0.0024169799871742725,0.035449039191007614,-0.00966791994869709,-2.66053973630932e-38,6.019922733306885,-2.66053973630932e-38,6.019922733306885,0.0,0.0,-0.22321423888206482,-0.22321423888206482,-0.009765625,-0.3246753215789795,-0.3246753215789795,-1.401298464324817e-45,0.0,0.0,0.0,0.0,0.0,0.0,23.830747604370117,0.0,0.0,0.0,0.0,1777842489346924073
1777842489553332197,39254126231552.0,6.019927024841309,39254126231552.0,6.019927024841309,0.0,0.0,-2.66053973630932e-38,6.019922733306885,-2.66053973630932e-38,6.019922733306885,0.0,0.0,-0.22321423888206482,-0.22321423888206482,-0.009765625,-0.3246753215789795,-0.3246753215789795,-1.401298464324817e-45,0.0,0.0,0.0,0.0,0.0,0.0,23.830747604370117,0.0,0.0,0.0,0.0,1777842489468155420
1777842489653338544,39254126231552.0,6.019927024841309,39254126231552.0,6.019927024841309,0.0,0.0,-2.66053973630932e-38,6.019922733306885,-2.66053973630932e-38,6.019922733306885,0.0,0.0,-0.22321423888206482,-0.22321423888206482,-0.009765625,-0.3246753215789795,-0.3246753215789795,-1.401298464324817e-45,0.0,0.0,0.0,0.0,0.0,0.0,23.830747604370117,0.0,0.0,0.0,0.0,1777842489468155420
1777842489753345113,39254126231552.0,6.019927024841309,39254126231552.0,6.019927024841309,0.0,0.0,-2.66053973630932e-38,6.019922733306885,-2.66053973630932e-38,6.019922733306885,0.0,0.0,-0.22321423888206482,-0.22321423888206482,-0.009765625,-0.3246753215789795,-0.3246753215789795,-1.401298464324817e-45,0.0,0.0,0.0,0.0,0.0,0.0,23.830747604370117,0.0,0.0,0.0,0.0,1777842489468155420
1777842489853351830,-0.22321423888206482,-0.22321423888206482,-0.009765625,-0.3246753215789795,-0.3246753215789795,-1.401298464324817e-45,0.007250939961522818,0.0,-0.05075657740235329,0.0032226399052888155,0.03464337810873985,-0.0040282998234033585,18.490766525268555,6.0199432373046875,18.490766525268555,6.0199432373046875,0.0,0.0,0.0,0.0,0.0,0.0,0.0,0.0,23.830673217773438,0.0,0.0,0.0,0.0,1777842489821349608
1777842489953351770,0.0040282998234033585,0.0,-0.05236789956688881,0.0,0.0378660187125206,-0.005639619659632444,1.3489174811889312e-26,6.019949913024902,1.3489174811889312e-26,6.019949913024902,0.0,0.0,275.0096435546875,175.00930786132812,78.9898910522461,243.0089111328125,84.0066146850586,74.99188232421875,0.0,0.0,0.0,0.0,0.0,0.0,23.830673217773438,0.0,0.0,0.0,0.0,1777842489921369900
1777842490053366710,275.1227722167969,175.05899047851562,78.68280029296875,243.10154724121094,84.33280944824219,74.83920288085938,5.653281563358107e-34,6.019956588745117,5.653281563358107e-34,6.019956588745117,0.0,0.0,-0.22321423888206482,-0.22321423888206482,-0.009765625,-0.3246753215789795,-0.3246753215789795,-1.401298464324817e-45,0.0,0.0,0.0,0.0,0.0,0.0,23.830673217773438,0.0,0.0,0.0,0.0,1777842490021496581
1777842490153358464,275.1227722167969,175.05899047851562,78.68280029296875,243.10154724121094,84.33280944824219,74.83920288085938,5.653281563358107e-34,6.019956588745117,5.653281563358107e-34,6.019956588745117,0.0,0.0,-0.22321423888206482,-0.22321423888206482,-0.009765625,-0.3246753215789795,-0.3246753215789795,-1.401298464324817e-45,0.0,0.0,0.0,0.0,0.0,0.0,23.830673217773438,0.0,0.0,0.0,0.0,1777842490021496581
1777842490253339385,-5.643844332943091e-26,6.019967555999756,-5.643844332943091e-26,6.019967555999756,0.0,0.0,5.653281563358107e-34,6.019956588745117,5.653281563358107e-34,6.019956588745117,0.0,0.0,-0.22321423888206482,-0.22321423888206482,-0.009765625,-0.3246753215789795,-0.3246753215789795,-1.401298464324817e-45,0.0,0.0,0.0,0.0,0.0,0.0,23.830673217773438,0.0,0.0,0.0,0.0,1777842490181724137
1777842490353375658,-391035.03125,6.019976615905762,-391035.03125,6.019976615905762,0.0,0.0,5.653281563358107e-34,6.019956588745117,5.653281563358107e-34,6.019956588745117,0.0,0.0,-0.22321423888206482,-0.22321423888206482,-0.009765625,-0.3246753215789795,-0.3246753215789795,-1.401298464324817e-45,0.0,0.0,0.0,0.0,0.0,0.0,23.830673217773438,0.0,0.0,0.0,0.0,1777842490307896834
1777842490453372931,-1.9878259836532606e+25,6.019984245300293,-1.9878259836532606e+25,6.019984245300293,0.0,0.0,5.653281563358107e-34,6.019956588745117,5.653281563358107e-34,6.019956588745117,0.0,0.0,-0.22321423888206482,-0.22321423888206482,-0.009765625,-0.3246753215789795,-0.3246753215789795,-1.401298464324817e-45,0.0,0.0,0.0,0.0,0.0,0.0,23.830673217773438,0.0,0.0,0.0,0.0,1777842490397496737
1777842490553372704,0.005639619659632444,0.0040282998234033585,-0.05236789956688881,0.0032226399052888155,0.03706035763025284,-0.026586778461933136,275.0096435546875,175.00930786132812,78.9898910522461,243.0089111328125,84.0066146850586,74.99188232421875,-0.22321423888206482,-0.22321423888206482,-0.009765625,-0.3246753215789795,-0.3246753215789795,-1.401298464324817e-45,0.0,0.0,0.0,0.0,0.0,0.0,23.830673217773438,0.0,0.0,0.0,0.0,1777842490470818269
1777842490653363625,-1.1676314139113436e+24,6.019994258880615,-1.1676314139113436e+24,6.019994258880615,0.0,0.0,275.0096435546875,175.00930786132812,78.9898910522461,243.0089111328125,84.0066146850586,74.99188232421875,275.0096435546875,175.00930786132812,78.9898910522461,243.0089111328125,84.0066146850586,74.99188232421875,0.0,0.0,0.0,0.0,0.0,0.0,23.830673217773438,0.0,0.0,0.0,0.0,1777842490569468278
1777842490753369083,0.004833959974348545,0.0,-0.05075657740235329,0.0,0.03867167979478836,-0.0032226399052888155,-2.4256519534412825e+20,6.020001411437988,-2.4256519534412825e+20,6.020001411437988,0.0,0.0,275.0096435546875,175.00930786132812,78.9898910522461,243.0089111328125,84.0066146850586,74.99188232421875,0.0,0.0,0.0,0.0,0.0,0.0,23.830673217773438,0.0,0.0,0.0,0.0,1777842490663478882
1777842490853380652,3.629804346033944e+34,6.020008563995361,3.629804346033944e+34,6.020008563995361,0.0,0.0,-2.4256519534412825e+20,6.020001411437988,-2.4256519534412825e+20,6.020001411437988,0.0,0.0,275.0096435546875,175.00930786132812,78.9898910522461,243.0089111328125,84.0066146850586,74.99188232421875,0.0,0.0,0.0,0.0,0.0,0.0,23.830673217773438,0.0,0.0,0.0,0.0,1777842490797484958
1777842490953361259,3.629804346033944e+34,6.020008563995361,3.629804346033944e+34,6.020008563995361,0.0,0.0,-2.4256519534412825e+20,6.020001411437988,-2.4256519534412825e+20,6.020001411437988,0.0,0.0,275.0096435546875,175.00930786132812,78.9898910522461,243.0089111328125,84.0066146850586,74.99188232421875,0.0,0.0,0.0,0.0,0.0,0.0,23.830673217773438,0.0,0.0,0.0,0.0,1777842490797484958
1777842491053355754,3.629804346033944e+34,6.020008563995361,3.629804346033944e+34,6.020008563995361,0.0,0.0,-2.4256519534412825e+20,6.020001411437988,-2.4256519534412825e+20,6.020001411437988,0.0,0.0,275.0096435546875,175.00930786132812,78.9898910522461,243.0089111328125,84.0066146850586,74.99188232421875,0.0,0.0,0.0,0.0,0.0,0.0,23.830673217773438,0.0,0.0,0.0,0.0,1777842490797484958
1777842491153367656,275.0096435546875,175.00930786132812,78.9898910522461,243.0089111328125,84.0066146850586,74.99188232421875,-0.22321423888206482,-0.22321423888206482,-0.009765625,-0.3246753215789795,-0.3246753215789795,-1.401298464324817e-45,0.006445279810577631,0.0024169799871742725,-0.05236789956688881,0.0008056599763222039,0.03706035763025284,-0.010473580099642277,0.0,0.0,0.0,0.0,0.0,0.0,23.830673217773438,0.0,0.0,0.0,0.0,1777842491126298877
1777842491253366948,0.005639619659632444,0.0008056599763222039,-0.049950920045375824,0.0016113199526444077,0.035449039191007614,-0.00966791994869709,-1330.8856201171875,6.0200347900390625,-1330.8856201171875,6.0200347900390625,0.0,0.0,0.004833959974348545,0.0,-0.05156223848462105,0.0,0.03867167979478836,-0.0024169799871742725,28.139999389648438,27.100000381469727,29.510000228881836,28.219999313354492,30.799999237060547,31.93000030517578,23.830673217773438,0.09829051792621613,-0.15701492130756378,-0.00828822422772646,-1.140211820602417,1777842491237207929
1777842491353377869,0.005639619659632444,0.0008056599763222039,-0.049950920045375824,0.0016113199526444077,0.035449039191007614,-0.00966791994869709,-1330.8856201171875,6.0200347900390625,-1330.8856201171875,6.0200347900390625,0.0,0.0,0.004833959974348545,0.0,-0.05156223848462105,0.0,0.03867167979478836,-0.0024169799871742725,28.139999389648438,27.100000381469727,29.510000228881836,28.219999313354492,30.799999237060547,31.93000030517578,23.830673217773438,0.09829051792621613,-0.15701492130756378,-0.00828822422772646,-1.140211820602417,1777842491237207929
1777842491453368716,1.1778669710147584e+16,6.020044326782227,1.1778669710147584e+16,6.020044326782227,0.0,0.0,-1330.8856201171875,6.0200347900390625,-1330.8856201171875,6.0200347900390625,0.0,0.0,0.004833959974348545,0.0,-0.05156223848462105,0.0,0.03867167979478836,-0.0024169799871742725,28.139999389648438,27.100000381469727,29.510000228881836,28.219999313354492,30.799999237060547,31.93000030517578,23.830673217773438,0.09829051792621613,-0.15701492130756378,-0.00828822422772646,-1.140211820602417,1777842491388479842
1777842491553350711,1.1778669710147584e+16,6.020044326782227,1.1778669710147584e+16,6.020044326782227,0.0,0.0,-1330.8856201171875,6.0200347900390625,-1330.8856201171875,6.0200347900390625,0.0,0.0,0.004833959974348545,0.0,-0.05156223848462105,0.0,0.03867167979478836,-0.0024169799871742725,28.139999389648438,27.100000381469727,29.510000228881836,28.219999313354492,30.799999237060547,31.93000030517578,23.830673217773438,0.09829051792621613,-0.15701492130756378,-0.00828822422772646,-1.140211820602417,1777842491388479842
1777842491653379984,1.1778669710147584e+16,6.020044326782227,1.1778669710147584e+16,6.020044326782227,0.0,0.0,-1330.8856201171875,6.0200347900390625,-1330.8856201171875,6.0200347900390625,0.0,0.0,0.004833959974348545,0.0,-0.05156223848462105,0.0,0.03867167979478836,-0.0024169799871742725,28.139999389648438,27.100000381469727,29.510000228881836,28.219999313354492,30.799999237060547,31.93000030517578,23.830673217773438,0.09829051792621613,-0.15701492130756378,-0.00828822422772646,-1.140211820602417,1777842491388479842
1777842491753373127,1.1778669710147584e+16,6.020044326782227,1.1778669710147584e+16,6.020044326782227,0.0,0.0,-1330.8856201171875,6.0200347900390625,-1330.8856201171875,6.0200347900390625,0.0,0.0,0.004833959974348545,0.0,-0.05156223848462105,0.0,0.03867167979478836,-0.0024169799871742725,28.139999389648438,27.100000381469727,29.510000228881836,28.219999313354492,30.799999237060547,31.93000030517578,23.830673217773438,0.09829051792621613,-0.15701492130756378,-0.00828822422772646,-1.140211820602417,1777842491388479842
1777842491853377326,1.1778669710147584e+16,6.020044326782227,1.1778669710147584e+16,6.020044326782227,0.0,0.0,-1330.8856201171875,6.0200347900390625,-1330.8856201171875,6.0200347900390625,0.0,0.0,0.004833959974348545,0.0,-0.05156223848462105,0.0,0.03867167979478836,-0.0024169799871742725,28.139999389648438,27.100000381469727,29.510000228881836,28.219999313354492,30.799999237060547,31.93000030517578,23.830673217773438,0.09829051792621613,-0.15701492130756378,-0.00828822422772646,-1.140211820602417,1777842491388479842
1777842491953375469,275.0096435546875,175.00930786132812,78.9898910522461,243.0089111328125,84.0066146850586,74.99188232421875,-0.22321423888206482,-0.22321423888206482,-0.009765625,-0.3246753215789795,-0.3246753215789795,-1.401298464324817e-45,0.004833959974348545,0.0024169799871742725,-0.05156223848462105,0.0016113199526444077,0.040282998234033585,-0.005639619659632444,28.139999389648438,27.18000030517578,29.510000228881836,28.219999313354492,30.799999237060547,31.93000030517578,23.830673217773438,0.10876408964395523,-0.15716791152954102,-0.008040666580200195,-1.1397159099578857,1777842491946272778
1777842492053384798,0.007250939961522818,0.0040282998234033585,-0.05075657740235329,0.0008056599763222039,0.03947733715176582,-0.006445279810577631,-2.4476249510025712e-17,6.0200653076171875,-2.4476249510025712e-17,6.0200653076171875,0.0,0.0,275.0096435546875,175.00930786132812,78.9898910522461,243.0089111328125,84.0066146850586,74.99188232421875,0.0,0.0,0.0,0.0,0.0,0.0,23.830673217773438,0.0,0.0,0.0,0.0,1777842492046351644
1777842492153386811,0.0024169799871742725,0.0,-0.05236789956688881,0.004833959974348545,0.03706035763025284,-0.005639619659632444,-1.9182078079045937e-28,6.020071506500244,-1.9182078079045937e-28,6.020071506500244,0.0,0.0,275.0096435546875,175.00930786132812,78.9898910522461,243.0089111328125,84.0066146850586,74.99188232421875,0.0,0.0,0.0,0.0,0.0,0.0,23.830673217773438,0.0,0.0,0.0,0.0,1777842492146431065
1777842492253380010,-22867.189453125,6.020078182220459,-22867.189453125,6.020078182220459,0.0,0.0,275.0096435546875,175.00930786132812,78.9898910522461,243.0089111328125,84.0066146850586,74.99188232421875,0.004833959974348545,0.0,-0.0483395978808403,0.0008056599763222039,0.03383772075176239,-0.008862259797751904,28.139999389648438,27.18000030517578,29.510000228881836,28.219999313354492,30.8799991607666,31.93000030517578,23.830673217773438,0.09748485684394836,-0.1587224006652832,-0.008485713973641396,-1.141095519065857,1777842492246510653
1777842492353367820,1614496.875,6.020086288452148,1614496.875,6.020086288452148,0.0,0.0,-1.987874406356454e+25,6.020098686218262,-1.987874406356454e+25,6.020098686218262,0.0,0.0,-0.22321423888206482,-0.22321423888206482,-0.009765625,-0.3246753215789795,-0.3246753215789795,-1.401298464324817e-45,0.0,0.0,0.0,0.0,0.0,0.0,23.830673217773438,0.0,0.0,0.0,0.0,1777842492346647575
1777842492453399371,-0.22321423888206482,-0.22321423888206482,-0.009765625,-0.3246753215789795,-0.3246753215789795,-1.401298464324817e-45,0.004833959974348545,0.0032226399052888155,-0.05156223848462105,0.0016113199526444077,0.03464337810873985,-0.00966791994869709,4.088615979093023e-24,6.020105361938477,4.088615979093023e-24,6.020105361938477,0.0,0.0,0.0,0.0,0.0,0.0,0.0,0.0,23.830673217773438,0.0,0.0,0.0,0.0,1777842492446413939
1777842492553385570,-0.22321423888206482,-0.22321423888206482,-0.009765625,-0.3246753215789795,-0.3246753215789795,-1.401298464324817e-45,0.004833959974348545,0.0032226399052888155,-0.05156223848462105,0.0016113199526444077,0.03464337810873985,-0.00966791994869709,4.088615979093023e-24,6.020105361938477,4.088615979093023e-24,6.020105361938477,0.0,0.0,0.0,0.0,0.0,0.0,0.0,0.0,23.830673217773438,0.0,0.0,0.0,0.0,1777842492446413939
1777842492653392232,2.8527178584864324e-14,6.020116806030273,2.8527178584864324e-14,6.020116806030273,0.0,0.0,0.004833959974348545,0.0032226399052888155,-0.05156223848462105,0.0016113199526444077,0.03464337810873985,-0.00966791994869709,4.088615979093023e-24,6.020105361938477,4.088615979093023e-24,6.020105361938477,0.0,0.0,0.0,0.0,0.0,0.0,0.0,0.0,23.830673217773438,0.0,0.0,0.0,0.0,1777842492608476131
1777842492753387542,2.8527178584864324e-14,6.020116806030273,2.8527178584864324e-14,6.020116806030273,0.0,0.0,0.004833959974348545,0.0032226399052888155,-0.05156223848462105,0.0016113199526444077,0.03464337810873985,-0.00966791994869709,-3.0580046988684e+31,6.020124912261963,-3.0580046988684e+31,6.020124912261963,0.0,0.0,0.0,0.0,0.0,0.0,0.0,0.0,23.830673217773438,0.0,0.0,0.0,0.0,1777842492608476131
1777842492853380777,-0.22321423888206482,-0.22321423888206482,-0.009765625,-0.3246753215789795,-0.3246753215789795,-1.401298464324817e-45,0.004833959974348545,0.0032226399052888155,-0.05156223848462105,0.0016113199526444077,0.03464337810873985,-0.00966791994869709,-4.618149262867942e-37,6.020133972167969,-4.618149262867942e-37,6.020133972167969,0.0,0.0,0.0,0.0,0.0,0.0,0.0,0.0,23.830673217773438,0.0,0.0,0.0,0.0,1777842492799484442
1777842492953398828,-0.22321423888206482,-0.22321423888206482,-0.009765625,-0.3246753215789795,-0.3246753215789795,-1.401298464324817e-45,5.000926430777375e-13,6.020137310028076,5.000926430777375e-13,6.020137310028076,0.0,0.0,-4.618149262867942e-37,6.020133972167969,-4.618149262867942e-37,6.020133972167969,0.0,0.0,0.0,0.0,0.0,0.0,0.0,0.0,23.830673217773438,0.0,0.0,0.0,0.0,1777842492888478362
1777842493053504361,-0.22321423888206482,-0.22321423888206482,-0.009765625,-0.3246753215789795,-0.3246753215789795,-1.401298464324817e-45,275.1227722167969,175.05899047851562,78.68280029296875,243.10154724121094,84.33280944824219,74.83920288085938,-4.618149262867942e-37,6.020133972167969,-4.618149262867942e-37,6.020133972167969,0.0,0.0,0.0,0.0,0.0,0.0,0.0,0.0,23.830673217773438,0.0,0.0,0.0,0.0,1777842492888478362
1777842493153394948,-0.22321423888206482,-0.22321423888206482,-0.009765625,-0.3246753215789795,-0.3246753215789795,-1.401298464324817e-45,275.1227722167969,175.05899047851562,78.68280029296875,243.10154724121094,84.33280944824219,74.83920288085938,-4.618149262867942e-37,6.020133972167969,-4.618149262867942e-37,6.020133972167969,0.0,0.0,0.0,0.0,0.0,0.0,0.0,0.0,23.830673217773438,0.0,0.0,0.0,0.0,1777842492888478362
1777842493253413110,0.020947160199284554,0.0,-0.05236789956688881,0.0008056599763222039,0.03222639858722687,-0.0040282998234033585,2242384232448.0,6.020150661468506,2242384232448.0,6.020150661468506,0.0,0.0,275.1227722167969,175.05899047851562,78.68280029296875,243.10154724121094,84.33280944824219,74.83920288085938,0.0,0.0,0.0,0.0,0.0,0.0,23.830673217773438,0.0,0.0,0.0,0.0,1777842493182833161
1777842493353431235,1.6884545568066436e+22,6.020162105560303,1.6884545568066436e+22,6.020162105560303,0.0,0.0,2242384232448.0,6.020150661468506,2242384232448.0,6.020150661468506,0.0,0.0,-0.22321423888206482,-0.22321423888206482,-0.009765625,-0.3246753215789795,-0.3246753215789795,-1.401298464324817e-45,0.0,0.0,0.0,0.0,0.0,0.0,23.830673217773438,0.0,0.0,0.0,0.0,1777842493309484008
1777842493453404045,9.637180967305104e-33,6.020167827606201,9.637180967305104e-33,6.020167827606201,0.0,0.0,2242384232448.0,6.020150661468506,2242384232448.0,6.020150661468506,0.0,0.0,-0.22321423888206482,-0.22321423888206482,-0.009765625,-0.3246753215789795,-0.3246753215789795,-1.401298464324817e-45,0.0,0.0,0.0,0.0,0.0,0.0,23.830673217773438,0.0,0.0,0.0,0.0,1777842493413466536
1777842493553398632,0.0008056599763222039,0.0032226399052888155,-0.05236789956688881,0.0024169799871742725,0.040282998234033585,-0.005639619659632444,-391046.40625,6.020174980163574,-391046.40625,6.020174980163574,0.0,0.0,-0.22321423888206482,-0.22321423888206482,-0.009765625,-0.3246753215789795,-0.3246753215789795,-1.401298464324817e-45,0.0,0.0,0.0,0.0,0.0,0.0,23.830673217773438,0.0,0.0,0.0,0.0,1777842493493478239
1777842493653412350,0.0008056599763222039,0.0032226399052888155,-0.05236789956688881,0.0024169799871742725,0.040282998234033585,-0.005639619659632444,-391046.40625,6.020174980163574,-391046.40625,6.020174980163574,0.0,0.0,-0.22321423888206482,-0.22321423888206482,-0.009765625,-0.3246753215789795,-0.3246753215789795,-1.401298464324817e-45,0.0,0.0,0.0,0.0,0.0,0.0,23.830673217773438,0.0,0.0,0.0,0.0,1777842493493478239
1777842493753407326,0.0008056599763222039,0.0032226399052888155,-0.05236789956688881,0.0024169799871742725,0.040282998234033585,-0.005639619659632444,0.004833959974348545,0.0,-0.05156223848462105,0.0024169799871742725,0.036254700273275375,-0.008056599646806717,-3.4777598640630026e+26,6.0201802253723145,-3.4777598640630026e+26,6.0201802253723145,0.0,0.0,0.0,0.0,0.0,0.0,0.0,0.0,23.830673217773438,0.0,0.0,0.0,0.0,1777842493493478239
1777842493853411136,0.0,0.0016113199526444077,-0.05236789956688881,0.0008056599763222039,0.03303205966949463,-0.005639619659632444,2.5109911094892205e+28,6.020188331604004,2.5109911094892205e+28,6.020188331604004,0.0,0.0,275.0096435546875,175.00930786132812,78.9898910522461,243.0089111328125,84.0066146850586,74.99188232421875,0.0,0.0,0.0,0.0,0.0,0.0,23.830673217773438,0.0,0.0,0.0,0.0,1777842493756360003
1777842493953396539,275.1227722167969,175.05899047851562,78.68280029296875,243.10154724121094,84.33280944824219,74.83920288085938,-6.238595751106857e-10,6.020195960998535,-6.238595751106857e-10,6.020195960998535,0.0,0.0,0.0024169799871742725,0.0,-0.05156223848462105,0.0,0.03464337810873985,-0.007250939961522818,0.0,0.0,0.0,0.0,0.0,0.0,23.830673217773438,0.0,0.0,0.0,0.0,1777842493892478290
1777842494053431830,275.1227722167969,175.05899047851562,78.68280029296875,243.10154724121094,84.33280944824219,74.83920288085938,-6.238595751106857e-10,6.020195960998535,-6.238595751106857e-10,6.020195960998535,0.0,0.0,275.1227722167969,175.05899047851562,78.68280029296875,243.10154724121094,84.33280944824219,74.83920288085938,0.0,0.0,0.0,0.0,0.0,0.0,23.830673217773438,0.0,0.0,0.0,0.0,1777842493892478290
1777842494153425122,0.0040282998234033585,0.0,-0.05156223848462105,0.004833959974348545,0.03706035763025284,-0.005639619659632444,0.00001278482250199886,6.020214557647705,0.00001278482250199886,6.020214557647705,0.0,0.0,275.1227722167969,175.05899047851562,78.68280029296875,243.10154724121094,84.33280944824219,74.83920288085938,0.0,0.0,0.0,0.0,0.0,0.0,23.830673217773438,0.0,0.0,0.0,0.0,1777842494105924105
1777842494253417543,0.0024169799871742725,0.0,-0.05156223848462105,0.0016113199526444077,0.035449039191007614,-0.0016113199526444077,0.00001278482250199886,6.020214557647705,0.00001278482250199886,6.020214557647705,0.0,0.0,275.1227722167969,175.05899047851562,78.68280029296875,243.10154724121094,84.33280944824219,74.83920288085938,0.0,0.0,0.0,0.0,0.0,0.0,23.830673217773438,0.0,0.0,0.0,0.0,1777842494218476477
1777842494353438390,-0.22321423888206482,-0.22321423888206482,-0.009765625,-0.3246753215789795,-0.3246753215789795,-1.401298464324817e-45,0.005639619659632444,0.0,-0.05156223848462105,0.0032226399052888155,0.03303205966949463,-0.004833959974348545,-0.000052604202210204676,6.020224571228027,-0.000052604202210204676,6.020224571228027,0.0,0.0,0.0,0.0,0.0,0.0,0.0,0.0,23.830673217773438,0.0,0.0,0.0,0.0,1777842494277477034
1777842494453425978,-1.825971054358888e-7,6.020229339599609,-1.825971054358888e-7,6.020229339599609,0.0,0.0,0.005639619659632444,0.0,-0.05156223848462105,0.0032226399052888155,0.03303205966949463,-0.004833959974348545,-0.22321423888206482,-0.22321423888206482,-0.009765625,-0.3246753215789795,-0.3246753215789795,-1.401298464324817e-45,0.0,0.0,0.0,0.0,0.0,0.0,23.830673217773438,0.0,0.0,0.0,0.0,1777842494414469398
1777842494553442936,-1.9879325136002863e+25,6.020236015319824,-1.9879325136002863e+25,6.020236015319824,0.0,0.0,0.005639619659632444,0.0,-0.05156223848462105,0.0032226399052888155,0.03303205966949463,-0.004833959974348545,-0.22321423888206482,-0.22321423888206482,-0.009765625,-0.3246753215789795,-0.3246753215789795,-1.401298464324817e-45,0.0,0.0,0.0,0.0,0.0,0.0,23.830673217773438,0.0,0.0,0.0,0.0,1777842494511473735
1777842494653432283,-1.9879325136002863e+25,6.020236015319824,-1.9879325136002863e+25,6.020236015319824,0.0,0.0,0.005639619659632444,0.0,-0.05156223848462105,0.0032226399052888155,0.03303205966949463,-0.004833959974348545,-0.22321423888206482,-0.22321423888206482,-0.009765625,-0.3246753215789795,-0.3246753215789795,-1.401298464324817e-45,0.0,0.0,0.0,0.0,0.0,0.0,23.830673217773438,0.0,0.0,0.0,0.0,1777842494511473735
1777842494753431982,-1.9879325136002863e+25,6.020236015319824,-1.9879325136002863e+25,6.020236015319824,0.0,0.0,0.005639619659632444,0.0,-0.05156223848462105,0.0032226399052888155,0.03303205966949463,-0.004833959974348545,-0.22321423888206482,-0.22321423888206482,-0.009765625,-0.3246753215789795,-0.3246753215789795,-1.401298464324817e-45,0.0,0.0,0.0,0.0,0.0,0.0,23.830673217773438,0.0,0.0,0.0,0.0,1777842494511473735
1777842494853433143,-1.9879325136002863e+25,6.020236015319824,-1.9879325136002863e+25,6.020236015319824,0.0,0.0,0.005639619659632444,0.0,-0.05156223848462105,0.0032226399052888155,0.03303205966949463,-0.004833959974348545,-0.22321423888206482,-0.22321423888206482,-0.009765625,-0.3246753215789795,-0.3246753215789795,-1.401298464324817e-45,28.139999389648438,27.020000457763672,29.43000030517578,28.219999313354492,30.719999313354492,31.93000030517578,23.830421447753906,0.10151315480470657,-0.15646019577980042,-0.005822181701660156,-1.1393213272094727,1777842494511473735
1777842494953426805,-0.22321423888206482,-0.22321423888206482,-0.009765625,-0.3246753215789795,-0.3246753215789795,-1.401298464324817e-45,0.006445279810577631,0.0016113199526444077,-0.055590540170669556,0.008056599646806717,0.03867167979478836,-0.0032226399052888155,275.0096435546875,175.00930786132812,78.9898910522461,243.0089111328125,84.0066146850586,74.99188232421875,0.0,0.0,0.0,0.0,0.0,0.0,23.830421447753906,0.0,0.0,0.0,0.0,1777842494861172411
1777842495053445023,0.004833959974348545,0.0,-0.0483395978808403,0.0,0.036254700273275375,-0.006445279810577631,275.1227722167969,175.05899047851562,78.68280029296875,243.10154724121094,84.33280944824219,74.83920288085938,-0.22321423888206482,-0.22321423888206482,-0.009765625,-0.3246753215789795,-0.3246753215789795,-1.401298464324817e-45,0.0,0.0,0.0,0.0,0.0,0.0,23.830421447753906,0.0,0.0,0.0,0.0,1777842494961379518
1777842495153421240,275.1227722167969,175.05899047851562,78.68280029296875,243.10154724121094,84.33280944824219,74.83920288085938,-1.4275409163671568e+19,6.020263195037842,-1.4275409163671568e+19,6.020263195037842,0.0,0.0,275.0096435546875,175.00930786132812,78.9898910522461,243.0089111328125,84.0066146850586,74.99188232421875,0.0,0.0,0.0,0.0,0.0,0.0,23.830421447753906,0.0,0.0,0.0,0.0,1777842495106485540
1777842495253433883,275.0096435546875,175.00930786132812,78.9898910522461,243.0089111328125,84.0066146850586,74.99188232421875,275.1227722167969,175.05899047851562,78.68280029296875,243.10154724121094,84.33280944824219,74.83920288085938,2.0230115443920077e+17,6.020278453826904,2.0230115443920077e+17,6.020278453826904,0.0,0.0,0.0,0.0,0.0,0.0,0.0,0.0,23.830421447753906,0.0,0.0,0.0,0.0,1777842495181478985
1777842495353431564,5520.37158203125,6.020281791687012,5520.37158203125,6.020281791687012,0.0,0.0,275.1227722167969,175.05899047851562,78.68280029296875,243.10154724121094,84.33280944824219,74.83920288085938,2.0230115443920077e+17,6.020278453826904,2.0230115443920077e+17,6.020278453826904,0.0,0.0,0.0,0.0,0.0,0.0,0.0,0.0,23.830421447753906,0.0,0.0,0.0,0.0,1777842495316077452
1777842495453443374,2.5848836404662734e-9,6.020290374755859,2.5848836404662734e-9,6.020290374755859,0.0,0.0,275.1227722167969,175.05899047851562,78.68280029296875,243.10154724121094,84.33280944824219,74.83920288085938,2.0230115443920077e+17,6.020278453826904,2.0230115443920077e+17,6.020278453826904,0.0,0.0,0.0,0.0,0.0,0.0,0.0,0.0,23.830421447753906,0.0,0.0,0.0,0.0,1777842495435467330
1777842495553432313,2.5848836404662734e-9,6.020290374755859,2.5848836404662734e-9,6.020290374755859,0.0,0.0,-0.22321423888206482,-0.22321423888206482,-0.009765625,-0.3246753215789795,-0.3246753215789795,-1.401298464324817e-45,275.0096435546875,175.00930786132812,78.9898910522461,243.0089111328125,84.0066146850586,74.99188232421875,0.0,0.0,0.0,0.0,0.0,0.0,23.830421447753906,0.0,0.0,0.0,0.0,1777842495435467330
1777842495653430568,2.5848836404662734e-9,6.020290374755859,2.5848836404662734e-9,6.020290374755859,0.0,0.0,-0.22321423888206482,-0.22321423888206482,-0.009765625,-0.3246753215789795,-0.3246753215789795,-1.401298464324817e-45,9.637366107665358e-33,6.020305156707764,9.637366107665358e-33,6.020305156707764,0.0,0.0,0.0,0.0,0.0,0.0,0.0,0.0,23.830421447753906,0.0,0.0,0.0,0.0,1777842495435467330
1777842495753469285,2.5848836404662734e-9,6.020290374755859,2.5848836404662734e-9,6.020290374755859,0.0,0.0,-0.22321423888206482,-0.22321423888206482,-0.009765625,-0.3246753215789795,-0.3246753215789795,-1.401298464324817e-45,9.637366107665358e-33,6.020305156707764,9.637366107665358e-33,6.020305156707764,0.0,0.0,0.0,0.0,0.0,0.0,0.0,0.0,23.830421447753906,0.0,0.0,0.0,0.0,1777842495435467330
1777842495853450558,2.5848836404662734e-9,6.020290374755859,2.5848836404662734e-9,6.020290374755859,0.0,0.0,-0.22321423888206482,-0.22321423888206482,-0.009765625,-0.3246753215789795,-0.3246753215789795,-1.401298464324817e-45,9.637366107665358e-33,6.020305156707764,9.637366107665358e-33,6.020305156707764,0.0,0.0,0.0,0.0,0.0,0.0,0.0,0.0,23.830421447753906,0.0,0.0,0.0,0.0,1777842495435467330
1777842495953438183,2.5848836404662734e-9,6.020290374755859,2.5848836404662734e-9,6.020290374755859,0.0,0.0,-0.22321423888206482,-0.22321423888206482,-0.009765625,-0.3246753215789795,-0.3246753215789795,-1.401298464324817e-45,9.637366107665358e-33,6.020305156707764,9.637366107665358e-33,6.020305156707764,0.0,0.0,0.0,0.0,0.0,0.0,0.0,0.0,23.830421447753906,0.0,0.0,0.0,0.0,1777842495435467330
1777842496053468326,2.5848836404662734e-9,6.020290374755859,2.5848836404662734e-9,6.020290374755859,0.0,0.0,0.007250939961522818,0.0,-0.0483395978808403,0.0,0.036254700273275375,-0.004833959974348545,275.0096435546875,175.00930786132812,78.9898910522461,243.0089111328125,84.0066146850586,74.99188232421875,0.0,0.0,0.0,0.0,0.0,0.0,23.830421447753906,0.0,0.0,0.0,0.0,1777842495435467330
1777842496153465247,275.0096435546875,175.00930786132812,78.9898910522461,243.0089111328125,84.0066146850586,74.99188232421875,275.1227722167969,175.05899047851562,78.68280029296875,243.10154724121094,84.33280944824219,74.83920288085938,0.0040282998234033585,0.0024169799871742725,-0.05075657740235329,0.0,0.030615078285336494,-0.007250939961522818,28.219999313354492,27.18000030517578,29.510000228881836,28.219999313354492,30.799999237060547,32.0099983215332,23.830421447753906,0.09506788104772568,-0.15730658173561096,-0.007888078689575195,-1.1414233446121216,1777842496076422017
1777842496253471742,0.0040282998234033585,0.0,-0.05156223848462105,0.0016113199526444077,0.036254700273275375,-0.0040282998234033585,275.0096435546875,175.00930786132812,78.9898910522461,243.0089111328125,84.0066146850586,74.99188232421875,275.1227722167969,175.05899047851562,78.68280029296875,243.10154724121094,84.33280944824219,74.83920288085938,0.0,0.0,0.0,0.0,0.0,0.0,23.830421447753906,0.0,0.0,0.0,0.0,1777842496176504271
1777842496353469663,2.0650778865475144e-20,6.020334720611572,2.0650778865475144e-20,6.020334720611572,0.0,0.0,-4.1294949938213636e-16,6.0203375816345215,-4.1294949938213636e-16,6.0203375816345215,0.0,0.0,0.004833959974348545,0.0,-0.05075657740235329,0.0024169799871742725,0.03867167979478836,-0.008056599646806717,28.139999389648438,27.100000381469727,29.59000015258789,28.219999313354492,30.799999237060547,32.0099983215332,23.830421447753906,0.10473579168319702,-0.15642166137695312,-0.007880130782723427,-1.141678810119629,1777842496276582415
1777842496453451825,2.0650778865475144e-20,6.020334720611572,2.0650778865475144e-20,6.020334720611572,0.0,0.0,275.1227722167969,175.05899047851562,78.68280029296875,243.10154724121094,84.33280944824219,74.83920288085938,-0.22321423888206482,-0.22321423888206482,-0.009765625,-0.3246753215789795,-0.3246753215789795,-1.401298464324817e-45,0.0,0.0,0.0,0.0,0.0,0.0,23.830421447753906,0.0,0.0,0.0,0.0,1777842496276582415
1777842496553451783,2.0650778865475144e-20,6.020334720611572,2.0650778865475144e-20,6.020334720611572,0.0,0.0,275.1227722167969,175.05899047851562,78.68280029296875,243.10154724121094,84.33280944824219,74.83920288085938,275.1227722167969,175.05899047851562,78.68280029296875,243.10154724121094,84.33280944824219,74.83920288085938,0.0,0.0,0.0,0.0,0.0,0.0,23.830421447753906,0.0,0.0,0.0,0.0,1777842496276582415
1777842496653459019,0.005639619659632444,0.0008056599763222039,-0.04431129992008209,0.0032226399052888155,0.03464337810873985,-0.005639619659632444,-4.227509029701086e+37,6.020364761352539,-4.227509029701086e+37,6.020364761352539,0.0,0.0,275.1227722167969,175.05899047851562,78.68280029296875,243.10154724121094,84.33280944824219,74.83920288085938,0.0,0.0,0.0,0.0,0.0,0.0,23.830421447753906,0.0,0.0,0.0,0.0,1777842496610575204
1777842496753474811,0.005639619659632444,0.0008056599763222039,-0.04431129992008209,0.0032226399052888155,0.03464337810873985,-0.005639619659632444,275.1227722167969,175.05899047851562,78.68280029296875,243.10154724121094,84.33280944824219,74.83920288085938,-0.22321423888206482,-0.22321423888206482,-0.009765625,-0.3246753215789795,-0.3246753215789795,-1.401298464324817e-45,0.0,0.0,0.0,0.0,0.0,0.0,23.830421447753906,0.0,0.0,0.0,0.0,1777842496610575204
1777842496852794988,0.005639619659632444,0.0008056599763222039,-0.04431129992008209,0.0032226399052888155,0.03464337810873985,-0.005639619659632444,275.1227722167969,175.05899047851562,78.68280029296875,243.10154724121094,84.33280944824219,74.83920288085938,-0.22321423888206482,-0.22321423888206482,-0.009765625,-0.3246753215789795,-0.3246753215789795,-1.401298464324817e-45,0.0,0.0,0.0,0.0,0.0,0.0,23.830421447753906,0.0,0.0,0.0,0.0,1777842496610575204
1777842496953596783,0.005639619659632444,0.0008056599763222039,-0.04431129992008209,0.0032226399052888155,0.03464337810873985,-0.005639619659632444,275.1227722167969,175.05899047851562,78.68280029296875,243.10154724121094,84.33280944824219,74.83920288085938,-0.22321423888206482,-0.22321423888206482,-0.009765625,-0.3246753215789795,-0.3246753215789795,-1.401298464324817e-45,0.0,0.0,0.0,0.0,0.0,0.0,23.830421447753906,0.0,0.0,0.0,0.0,1777842496610575204
1777842497053482666,-5.2045331994818915e+32,6.020389556884766,-5.2045331994818915e+32,6.020389556884766,0.0,0.0,275.1227722167969,175.05899047851562,78.68280029296875,243.10154724121094,84.33280944824219,74.83920288085938,-0.22321423888206482,-0.22321423888206482,-0.009765625,-0.3246753215789795,-0.3246753215789795,-1.401298464324817e-45,0.0,0.0,0.0,0.0,0.0,0.0,23.830421447753906,0.0,0.0,0.0,0.0,1777842497020731942
1777842497153458161,0.004833959974348545,0.0,-0.05156223848462105,0.0,0.03706035763025284,-0.007250939961522818,-1.0697340790954968e-8,6.020399570465088,-1.0697340790954968e-8,6.020399570465088,0.0,0.0,275.0096435546875,175.00930786132812,78.9898910522461,243.0089111328125,84.0066146850586,74.99188232421875,0.0,0.0,0.0,0.0,0.0,0.0,23.830421447753906,0.0,0.0,0.0,0.0,1777842497137836792
1777842497253461934,0.004833959974348545,0.0,-0.05156223848462105,0.0,0.03706035763025284,-0.007250939961522818,-0.22321423888206482,-0.22321423888206482,-0.009765625,-0.3246753215789795,-0.3246753215789795,-1.401298464324817e-45,0.0032226399052888155,0.0,-0.054784879088401794,0.0,0.036254700273275375,-0.005639619659632444,28.139999389648438,27.18000030517578,29.510000228881836,28.139999389648438,30.799999237060547,32.0099983215332,23.830421447753906,0.09748486429452896,-0.1576499044895172,-0.009624162688851357,-1.1395529508590698,1777842497137836792
1777842497353475930,0.0040282998234033585,0.0,-0.05236789956688881,0.0008056599763222039,0.03867167979478836,-0.004833959974348545,-0.22321423888206482,-0.22321423888206482,-0.009765625,-0.3246753215789795,-0.3246753215789795,-1.401298464324817e-45,0.0032226399052888155,0.0,-0.054784879088401794,0.0,0.036254700273275375,-0.005639619659632444,28.139999389648438,27.18000030517578,29.510000228881836,28.139999389648438,30.799999237060547,32.0099983215332,23.830421447753906,0.09748486429452896,-0.1576499044895172,-0.009624162688851357,-1.1395529508590698,1777842497342474743
1777842497453462406,0.0040282998234033585,0.0,-0.05236789956688881,0.0008056599763222039,0.03867167979478836,-0.004833959974348545,-0.22321423888206482,-0.22321423888206482,-0.009765625,-0.3246753215789795,-0.3246753215789795,-1.401298464324817e-45,0.0032226399052888155,0.0,-0.054784879088401794,0.0,0.036254700273275375,-0.005639619659632444,28.139999389648438,27.18000030517578,29.510000228881836,28.139999389648438,30.799999237060547,32.0099983215332,23.830421447753906,0.09748486429452896,-0.1576499044895172,-0.009624162688851357,-1.1395529508590698,1777842497342474743
1777842497553470679,0.0040282998234033585,0.0,-0.05236789956688881,0.0008056599763222039,0.03867167979478836,-0.004833959974348545,-0.22321423888206482,-0.22321423888206482,-0.009765625,-0.3246753215789795,-0.3246753215789795,-1.401298464324817e-45,0.0032226399052888155,0.0,-0.054784879088401794,0.0,0.036254700273275375,-0.005639619659632444,28.139999389648438,27.18000030517578,29.510000228881836,28.139999389648438,30.799999237060547,32.0099983215332,23.830421447753906,0.09748486429452896,-0.1576499044895172,-0.009624162688851357,-1.1395529508590698,1777842497342474743
1777842497653477396,-0.22321423888206482,-0.22321423888206482,-0.009765625,-0.3246753215789795,-0.3246753215789795,-1.401298464324817e-45,0.0040282998234033585,0.0,-0.05156223848462105,0.0016113199526444077,0.03222639858722687,-0.005639619659632444,-1.918283641396154e-28,6.02041482925415,-1.918283641396154e-28,6.02041482925415,0.0,0.0,0.0,0.0,0.0,0.0,0.0,0.0,23.830421447753906,0.0,0.0,0.0,0.0,1777842497599162615
1777842497753474836,-0.22321423888206482,-0.22321423888206482,-0.009765625,-0.3246753215789795,-0.3246753215789795,-1.401298464324817e-45,0.005639619659632444,0.0,-0.05156223848462105,0.0032226399052888155,0.03706035763025284,-0.0040282998234033585,7850245632.0,6.020422458648682,7850245632.0,6.020422458648682,0.0,0.0,0.0,0.0,0.0,0.0,0.0,0.0,23.830421447753906,0.0,0.0,0.0,0.0,1777842497682311793
1777842497853473942,0.004833959974348545,0.0008056599763222039,-0.04914525896310806,0.004833959974348545,0.03464337810873985,-0.010473580099642277,-0.0008885639836080372,6.02042818069458,-0.0008885639836080372,6.02042818069458,0.0,0.0,-4.1002694927303524e-30,-0.22321423888206482,-0.009765625,-0.3246753215789795,-0.3246753215789795,-1.401298464324817e-45,28.139999389648438,27.260000228881836,29.59000015258789,28.219999313354492,30.799999237060547,32.0099983215332,23.830421447753906,0.10231881588697433,-0.15698552131652832,-0.007799863815307617,-1.1402920484542847,1777842497782491270
1777842497953479586,-3.477940642154925e+26,6.020447254180908,-3.477940642154925e+26,6.020447254180908,0.0,0.0,275.1227722167969,175.05899047851562,78.68280029296875,243.10154724121094,84.33280944824219,74.83920288085938,-4.1002694927303524e-30,-0.22321423888206482,-0.009765625,-0.3246753215789795,-0.3246753215789795,-1.401298464324817e-45,0.0,0.0,0.0,0.0,0.0,0.0,23.830421447753906,0.0,0.0,0.0,0.0,1777842497946007708
1777842498053526396,-3.22436283135095e-27,6.020450592041016,-3.22436283135095e-27,6.020450592041016,0.0,0.0,275.1227722167969,175.05899047851562,78.68280029296875,243.10154724121094,84.33280944824219,74.83920288085938,-4.1002694927303524e-30,-0.22321423888206482,-0.009765625,-0.3246753215789795,-0.3246753215789795,-1.401298464324817e-45,0.0,0.0,0.0,0.0,0.0,0.0,23.830421447753906,0.0,0.0,0.0,0.0,1777842498044474216
1777842498153491946,0.0040282998234033585,0.0,-0.05075657740235329,0.0016113199526444077,0.03706035763025284,-0.008056599646806717,-8.52066793646083e-20,6.020459175109863,-8.52066793646083e-20,6.020459175109863,0.0,0.0,275.1227722167969,175.05899047851562,78.68280029296875,243.10154724121094,84.33280944824219,74.83920288085938,0.0,0.0,0.0,0.0,0.0,0.0,23.830421447753906,0.0,0.0,0.0,0.0,1777842498123475398
1777842498253483367,9.84904026949162e-40,6.0204620361328125,9.84904026949162e-40,6.0204620361328125,0.0,0.0,-8.52066793646083e-20,6.020459175109863,-8.52066793646083e-20,6.020459175109863,0.0,0.0,275.1227722167969,175.05899047851562,78.68280029296875,243.10154724121094,84.33280944824219,74.83920288085938,0.0,0.0,0.0,0.0,0.0,0.0,23.830421447753906,0.0,0.0,0.0,0.0,1777842498244472243
1777842498353545381,1.6944562708181665e-15,6.020470142364502,1.6944562708181665e-15,6.020470142364502,0.0,0.0,-8.52066793646083e-20,6.020459175109863,-8.52066793646083e-20,6.020459175109863,0.0,0.0,275.1227722167969,175.05899047851562,78.68280029296875,243.10154724121094,84.33280944824219,74.83920288085938,0.0,0.0,0.0,0.0,0.0,0.0,23.830421447753906,0.0,0.0,0.0,0.0,1777842498344467516
1777842498453462432,0.005639619659632444,0.0016113199526444077,-0.05236789956688881,0.0040282998234033585,0.03464337810873985,-0.008056599646806717,-0.2529474198818207,6.020476818084717,-0.2529474198818207,6.020476818084717,0.0,0.0,275.1227722167969,175.05899047851562,78.68280029296875,243.10154724121094,84.33280944824219,74.83920288085938,0.0,0.0,0.0,0.0,0.0,0.0,23.830421447753906,0.0,0.0,0.0,0.0,1777842498428472604
1777842498553493168,0.005639619659632444,0.0016113199526444077,-0.05236789956688881,0.0040282998234033585,0.03464337810873985,-0.008056599646806717,275.1227722167969,175.05899047851562,78.68280029296875,243.10154724121094,84.33280944824219,74.83920288085938,-0.22321423888206482,-1.401298464324817e-45,-0.009765625,-0.3246753215789795,-0.3246753215789795,-1.401298464324817e-45,28.219999313354492,27.100000381469727,29.510000228881836,28.219999313354492,30.799999237060547,31.93000030517578,23.830421447753906,0.10554145276546478,-0.1571313440799713,-0.009266534820199013,-1.1410439014434814,1777842498428472604
1777842498653500774,275.1227722167969,175.05899047851562,78.68280029296875,243.10154724121094,84.33280944824219,74.83920288085938,275.1227722167969,175.05899047851562,78.68280029296875,243.10154724121094,84.33280944824219,74.83920288085938,-0.22321423888206482,-1.401298464324817e-45,-0.009765625,-0.3246753215789795,-0.3246753215789795,-1.401298464324817e-45,28.139999389648438,27.18000030517578,29.59000015258789,28.309999465942383,30.799999237060547,31.93000030517578,23.830421447753906,0.1031244769692421,-0.15771546959877014,-0.0065084295347332954,-1.1420655250549316,1777842498625945104
1777842498753468010,0.008862259797751904,0.0,-0.05156223848462105,0.0,0.03464337810873985,-0.006445279810577631,5.001283133292123e-13,6.020495891571045,5.001283133292123e-13,6.020495891571045,0.0,0.0,-0.22321423888206482,-1.401298464324817e-45,-0.009765625,-0.3246753215789795,-0.3246753215789795,-1.401298464324817e-45,28.139999389648438,27.18000030517578,29.59000015258789,28.309999465942383,30.799999237060547,31.93000030517578,23.830421447753906,0.1031244769692421,-0.15771546959877014,-0.0065084295347332954,-1.1420655250549316,1777842498744488775
1777842498853491172,0.008862259797751904,0.0,-0.05156223848462105,0.0,0.03464337810873985,-0.006445279810577631,5.001283133292123e-13,6.020495891571045,5.001283133292123e-13,6.020495891571045,0.0,0.0,-0.22321423888206482,-1.401298464324817e-45,-0.009765625,-0.3246753215789795,-0.3246753215789795,-1.401298464324817e-45,28.139999389648438,27.18000030517578,29.59000015258789,28.309999465942383,30.799999237060547,31.93000030517578,23.830421447753906,0.1031244769692421,-0.15771546959877014,-0.0065084295347332954,-1.1420655250549316,1777842498744488775
1777842498953503537,0.008862259797751904,0.0,-0.05156223848462105,0.0,0.03464337810873985,-0.006445279810577631,5.001283133292123e-13,6.020495891571045,5.001283133292123e-13,6.020495891571045,0.0,0.0,-0.22321423888206482,-1.401298464324817e-45,-0.009765625,-0.3246753215789795,-0.3246753215789795,-1.401298464324817e-45,28.139999389648438,27.18000030517578,29.59000015258789,28.309999465942383,30.799999237060547,31.93000030517578,23.830421447753906,0.1031244769692421,-0.15771546959877014,-0.0065084295347332954,-1.1420655250549316,1777842498744488775
1777842499053511125,0.008862259797751904,0.0,-0.05156223848462105,0.0,0.03464337810873985,-0.006445279810577631,5.001283133292123e-13,6.020495891571045,5.001283133292123e-13,6.020495891571045,0.0,0.0,-0.22321423888206482,-1.401298464324817e-45,-0.009765625,-0.3246753215789795,-0.3246753215789795,-1.401298464324817e-45,28.139999389648438,27.18000030517578,29.59000015258789,28.309999465942383,30.799999237060547,31.93000030517578,23.830421447753906,0.1031244769692421,-0.15771546959877014,-0.0065084295347332954,-1.1420655250549316,1777842498744488775
1777842499153507953,275.0096435546875,175.00930786132812,78.9898910522461,243.0089111328125,84.0066146850586,74.99188232421875,275.1227722167969,175.05899047851562,78.68280029296875,243.10154724121094,84.33280944824219,74.83920288085938,-0.22321423888206482,-1.401298464324817e-45,-0.009765625,-0.3246753215789795,-0.3246753215789795,-1.401298464324817e-45,0.0,0.0,0.0,0.0,0.0,0.0,23.830421447753906,0.0,0.0,0.0,0.0,1777842499096384070
1777842499253462578,275.0096435546875,175.00930786132812,78.9898910522461,243.0089111328125,84.0066146850586,74.99188232421875,275.1227722167969,175.05899047851562,78.68280029296875,243.10154724121094,84.33280944824219,74.83920288085938,-0.22321423888206482,-1.401298464324817e-45,-0.009765625,-0.3246753215789795,-0.3246753215789795,-1.401298464324817e-45,0.0,0.0,0.0,0.0,0.0,0.0,23.830421447753906,0.0,0.0,0.0,0.0,1777842499193206184
1777842499353507332,275.0096435546875,175.00930786132812,78.9898910522461,243.0089111328125,84.0066146850586,74.99188232421875,-0.22321423888206482,-1.401298464324817e-45,-0.009765625,-0.3246753215789795,-0.3246753215789795,-1.401298464324817e-45,5.653757271228205e-34,6.02052116394043,5.653757271228205e-34,6.02052116394043,0.0,0.0,0.0,0.0,0.0,0.0,0.0,0.0,23.830421447753906,0.0,0.0,0.0,0.0,1777842499293208531
1777842499453504309,275.1227722167969,175.05899047851562,78.68280029296875,243.10154724121094,84.33280944824219,74.83920288085938,0.005639619659632444,0.0,-0.05236789956688881,0.0040282998234033585,0.036254700273275375,-0.008862259797751904,-4.431203365325928,6.0205278396606445,-4.431203365325928,6.0205278396606445,0.0,0.0,0.0,0.0,0.0,0.0,0.0,0.0,23.830421447753906,0.0,0.0,0.0,0.0,1777842499413471059
1777842499553502638,0.0040282998234033585,0.0,-0.05156223848462105,0.0,0.03867167979478836,-0.006445279810577631,1.1779646815207424e+16,6.020540237426758,1.1779646815207424e+16,6.020540237426758,0.0,0.0,-4.431203365325928,6.0205278396606445,-4.431203365325928,6.0205278396606445,0.0,0.0,0.0,0.0,0.0,0.0,0.0,0.0,23.830421447753906,0.0,0.0,0.0,0.0,1777842499515313468
1777842499653473170,0.0040282998234033585,0.0,-0.05156223848462105,0.0,0.03867167979478836,-0.006445279810577631,1.1779646815207424e+16,6.020540237426758,1.1779646815207424e+16,6.020540237426758,0.0,0.0,-4.431203365325928,6.0205278396606445,-4.431203365325928,6.0205278396606445,0.0,0.0,0.0,0.0,0.0,0.0,0.0,0.0,23.830421447753906,0.0,0.0,0.0,0.0,1777842499515313468
1777842499753506276,-1.3672228747768019e-34,6.0205488204956055,-1.3672228747768019e-34,6.0205488204956055,0.0,0.0,1.1779646815207424e+16,6.020540237426758,1.1779646815207424e+16,6.020540237426758,0.0,0.0,275.0096435546875,175.00930786132812,78.9898910522461,243.0089111328125,84.0066146850586,74.99188232421875,0.0,0.0,0.0,0.0,0.0,0.0,23.830421447753906,0.0,0.0,0.0,0.0,1777842499668470240
1777842499853515993,-1.3672228747768019e-34,6.0205488204956055,-1.3672228747768019e-34,6.0205488204956055,0.0,0.0,-0.22321423888206482,-1.401298464324817e-45,-0.009765625,-0.3246753215789795,-0.3246753215789795,-1.401298464324817e-45,275.0096435546875,175.00930786132812,78.9898910522461,243.0089111328125,84.0066146850586,74.99188232421875,0.0,0.0,0.0,0.0,0.0,0.0,23.830421447753906,0.0,0.0,0.0,0.0,1777842499668470240
1777842499953534433,-1.3672228747768019e-34,6.0205488204956055,-1.3672228747768019e-34,6.0205488204956055,0.0,0.0,-0.22321423888206482,-1.401298464324817e-45,-0.009765625,-0.3246753215789795,-0.3246753215789795,-1.401298464324817e-45,275.0096435546875,175.00930786132812,78.9898910522461,243.0089111328125,84.0066146850586,74.99188232421875,0.0,0.0,0.0,0.0,0.0,0.0,23.830421447753906,0.0,0.0,0.0,0.0,1777842499668470240
1777842500053502595,-1.3672228747768019e-34,6.0205488204956055,-1.3672228747768019e-34,6.0205488204956055,0.0,0.0,-0.22321423888206482,-1.401298464324817e-45,-0.009765625,-0.3246753215789795,-0.3246753215789795,-1.401298464324817e-45,275.0096435546875,175.00930786132812,78.9898910522461,243.0089111328125,84.0066146850586,74.99188232421875,0.0,0.0,0.0,0.0,0.0,0.0,23.830421447753906,0.0,0.0,0.0,0.0,1777842499668470240
1777842500153463905,275.0096435546875,175.00930786132812,78.9898910522461,243.0089111328125,84.0066146850586,74.99188232421875,275.1227722167969,175.05899047851562,78.68280029296875,243.10154724121094,84.33280944824219,74.83920288085938,0.008862259797751904,0.0,-0.05156223848462105,0.0016113199526444077,0.03867167979478836,-0.005639619659632444,0.0,0.0,0.0,0.0,0.0,0.0,23.830421447753906,0.0,0.0,0.0,0.0,1777842500104056955
1777842500253460085,-0.22321423888206482,-1.401298464324817e-45,-0.009765625,-0.3246753215789795,-0.3246753215789795,-1.401298464324817e-45,275.0096435546875,175.00930786132812,78.9898910522461,243.0089111328125,84.0066146850586,74.99188232421875,275.1227722167969,175.05899047851562,78.68280029296875,243.10154724121094,84.33280944824219,74.83920288085938,0.0,0.0,0.0,0.0,0.0,0.0,23.830421447753906,0.0,0.0,0.0,0.0,1777842500204358840
1777842500353573895,-1.4276040283345912e+19,6.020576000213623,-1.4276040283345912e+19,6.020576000213623,0.0,0.0,275.0096435546875,175.00930786132812,78.9898910522461,243.0089111328125,84.0066146850586,74.99188232421875,275.1227722167969,175.05899047851562,78.68280029296875,243.10154724121094,84.33280944824219,74.83920288085938,28.139999389648438,27.18000030517578,29.59000015258789,28.309999465942383,30.8799991607666,32.0099983215332,23.830551147460938,0.09990183264017105,-0.15783944725990295,-0.008208354003727436,-1.141248106956482,1777842500304411317
1777842500453531538,-1.4919030422039635e+35,6.020583152770996,-1.4919030422039635e+35,6.020583152770996,0.0,0.0,8.323710493321906e+25,6.020589828491211,8.323710493321906e+25,6.020589828491211,0.0,0.0,-6.7361445165114005e-31,6.020595073699951,-6.7361445165114005e-31,6.020595073699951,0.0,0.0,28.139999389648438,27.18000030517578,29.59000015258789,28.309999465942383,30.8799991607666,32.0099983215332,23.830551147460938,0.09990183264017105,-0.15783944725990295,-0.008208354003727436,-1.141248106956482,1777842500424473752
1777842500553515626,-1.4919030422039635e+35,6.020583152770996,-1.4919030422039635e+35,6.020583152770996,0.0,0.0,8.323710493321906e+25,6.020589828491211,8.323710493321906e+25,6.020589828491211,0.0,0.0,-6.7361445165114005e-31,6.020595073699951,-6.7361445165114005e-31,6.020595073699951,0.0,0.0,28.139999389648438,27.18000030517578,29.59000015258789,28.309999465942383,30.8799991607666,32.0099983215332,23.830551147460938,0.09990183264017105,-0.15783944725990295,-0.008208354003727436,-1.141248106956482,1777842500424473752
1777842500653573658,-6.948464105661781e-15,6.0206098556518555,-6.948464105661781e-15,6.0206098556518555,0.0,0.0,275.1227722167969,175.05899047851562,78.68280029296875,243.10154724121094,84.33280944824219,74.83920288085938,-0.22321423888206482,-1.401298464324817e-45,-0.009765625,-0.3246753215789795,-0.3246753215789795,-1.401298464324817e-45,28.139999389648438,27.18000030517578,29.59000015258789,28.309999465942383,30.8799991607666,32.0099983215332,23.830551147460938,0.09990183264017105,-0.15783944725990295,-0.008208354003727436,-1.141248106956482,1777842500649473718
1777842500753470857,-6.948464105661781e-15,6.0206098556518555,-6.948464105661781e-15,6.0206098556518555,0.0,0.0,275.1227722167969,175.05899047851562,78.68280029296875,243.10154724121094,84.33280944824219,74.83920288085938,-0.22321423888206482,-1.401298464324817e-45,-0.009765625,-0.3246753215789795,-0.3246753215789795,-1.401298464324817e-45,28.139999389648438,27.18000030517578,29.59000015258789,28.309999465942383,30.8799991607666,32.0099983215332,23.830551147460938,0.09990183264017105,-0.15783944725990295,-0.008208354003727436,-1.141248106956482,1777842500649473718
1777842500853527686,-3.4780594391867596e+26,6.020622730255127,-3.4780594391867596e+26,6.020622730255127,0.0,0.0,275.1227722167969,175.05899047851562,78.68280029296875,243.10154724121094,84.33280944824219,74.83920288085938,275.1227722167969,175.05899047851562,78.68280029296875,243.10154724121094,84.33280944824219,74.83920288085938,0.0,0.0,0.0,0.0,0.0,0.0,23.830551147460938,0.0,0.0,0.0,0.0,1777842500846156493
1777842500953513903,-3.4780594391867596e+26,6.020622730255127,-3.4780594391867596e+26,6.020622730255127,0.0,0.0,275.1227722167969,175.05899047851562,78.68280029296875,243.10154724121094,84.33280944824219,74.83920288085938,275.1227722167969,175.05899047851562,78.68280029296875,243.10154724121094,84.33280944824219,74.83920288085938,0.0,0.0,0.0,0.0,0.0,0.0,23.830551147460938,0.0,0.0,0.0,0.0,1777842500846156493
1777842501053527583,2.0231221827495526e+17,6.020629405975342,2.0231221827495526e+17,6.020629405975342,0.0,0.0,275.1227722167969,175.05899047851562,78.68280029296875,243.10154724121094,84.33280944824219,74.83920288085938,275.1227722167969,175.05899047851562,78.68280029296875,243.10154724121094,84.33280944824219,74.83920288085938,0.0,0.0,0.0,0.0,0.0,0.0,23.830551147460938,0.0,0.0,0.0,0.0,1777842500958597347
1777842501153533653,0.004833959974348545,0.0,-0.049950920045375824,0.0008056599763222039,0.03706035763025284,-0.006445279810577631,1.688553861178427e+22,6.0206427574157715,1.688553861178427e+22,6.0206427574157715,0.0,0.0,275.1227722167969,175.05899047851562,78.68280029296875,243.10154724121094,84.33280944824219,74.83920288085938,0.0,0.0,0.0,0.0,0.0,0.0,23.830551147460938,0.0,0.0,0.0,0.0,1777842501146468072
1777842501253530296,0.004833959974348545,0.0,-0.049950920045375824,0.0008056599763222039,0.03706035763025284,-0.006445279810577631,1.688553861178427e+22,6.0206427574157715,1.688553861178427e+22,6.0206427574157715,0.0,0.0,275.1227722167969,175.05899047851562,78.68280029296875,243.10154724121094,84.33280944824219,74.83920288085938,0.0,0.0,0.0,0.0,0.0,0.0,23.830551147460938,0.0,0.0,0.0,0.0,1777842501146468072
1777842501353544291,1.6367170742332393e-31,6.02065372467041,1.6367170742332393e-31,6.02065372467041,0.0,0.0,275.1227722167969,175.05899047851562,78.68280029296875,243.10154724121094,84.33280944824219,74.83920288085938,-0.22321423888206482,-1.401298464324817e-45,-0.009765625,-0.3246753215789795,-0.3246753215789795,-1.401298464324817e-45,0.0,0.0,0.0,0.0,0.0,0.0,23.830551147460938,0.0,0.0,0.0,0.0,1777842501348529737
1777842501453535157,1.6367170742332393e-31,6.02065372467041,1.6367170742332393e-31,6.02065372467041,0.0,0.0,275.1227722167969,175.05899047851562,78.68280029296875,243.10154724121094,84.33280944824219,74.83920288085938,-0.22321423888206482,-1.401298464324817e-45,-0.009765625,-0.3246753215789795,-0.3246753215789795,-1.401298464324817e-45,0.0,0.0,0.0,0.0,0.0,0.0,23.830551147460938,0.0,0.0,0.0,0.0,1777842501348529737
1777842501553547392,275.1227722167969,175.05899047851562,78.68280029296875,243.10154724121094,84.33280944824219,74.83920288085938,275.1227722167969,175.05899047851562,78.68280029296875,243.10154724121094,84.33280944824219,74.83920288085938,-0.22321423888206482,-1.401298464324817e-45,-0.009765625,-0.3246753215789795,-0.3246753215789795,-1.401298464324817e-45,0.0,0.0,0.0,0.0,0.0,0.0,23.830551147460938,0.0,0.0,0.0,0.0,1777842501487478571
1777842501653539425,275.1227722167969,175.05899047851562,78.68280029296875,243.10154724121094,84.33280944824219,74.83920288085938,275.1227722167969,175.05899047851562,78.68280029296875,243.10154724121094,84.33280944824219,74.83920288085938,-0.22321423888206482,-1.401298464324817e-45,-0.009765625,-0.3246753215789795,-0.3246753215789795,-1.401298464324817e-45,0.0,0.0,0.0,0.0,0.0,0.0,23.830551147460938,0.0,0.0,0.0,0.0,1777842501487478571
1777842501753562790,275.1227722167969,175.05899047851562,78.68280029296875,243.10154724121094,84.33280944824219,74.83920288085938,275.1227722167969,175.05899047851562,78.68280029296875,243.10154724121094,84.33280944824219,74.83920288085938,-0.22321423888206482,-1.401298464324817e-45,-0.009765625,-0.3246753215789795,-0.3246753215789795,-1.401298464324817e-45,0.0,0.0,0.0,0.0,0.0,0.0,23.830551147460938,0.0,0.0,0.0,0.0,1777842501487478571
1777842501853550526,275.0096435546875,175.00930786132812,78.9898910522461,243.0089111328125,84.0066146850586,74.99188232421875,-0.22321423888206482,-1.401298464324817e-45,-0.009765625,-0.3246753215789795,-0.3246753215789795,-1.401298464324817e-45,0.010473580099642277,0.0,-0.05156223848462105,0.0016113199526444077,0.0378660187125206,-0.006445279810577631,28.139999389648438,27.18000030517578,29.510000228881836,28.219999313354492,30.719999313354492,31.93000030517578,23.830551147460938,0.09990183264017105,-0.15799999237060547,-0.00752250337973237,-1.1406151056289673,1777842501814345075
1777842501953541077,275.0096435546875,175.00930786132812,78.9898910522461,243.0089111328125,84.0066146850586,74.99188232421875,-0.22321423888206482,-1.401298464324817e-45,-0.009765625,-0.3246753215789795,-0.3246753215789795,-1.401298464324817e-45,0.010473580099642277,0.0,-0.05156223848462105,0.0016113199526444077,0.0378660187125206,-0.006445279810577631,28.139999389648438,27.18000030517578,29.510000228881836,28.219999313354492,30.719999313354492,31.93000030517578,23.830551147460938,0.09990183264017105,-0.15799999237060547,-0.00752250337973237,-1.1406151056289673,1777842501814345075
1777842502053541757,0.0040282998234033585,0.0,-0.05075657740235329,0.0008056599763222039,0.03383772075176239,-0.008862259797751904,-1.9881229762328474e+25,6.020686149597168,-1.9881229762328474e+25,6.020686149597168,0.0,0.0,0.010473580099642277,0.0,-0.05156223848462105,0.0016113199526444077,0.0378660187125206,-0.006445279810577631,28.139999389648438,27.18000030517578,29.510000228881836,28.219999313354492,30.719999313354492,31.93000030517578,23.830551147460938,0.09990183264017105,-0.15799999237060547,-0.00752250337973237,-1.1406151056289673,1777842501955470972
1777842502153543771,1.3491267142180894e-26,6.020689964294434,1.3491267142180894e-26,6.020689964294434,0.0,0.0,3.458389855233376e+18,6.020695686340332,3.458389855233376e+18,6.020695686340332,0.0,0.0,0.010473580099642277,0.0,-0.05156223848462105,0.0016113199526444077,0.0378660187125206,-0.006445279810577631,28.139999389648438,27.18000030517578,29.510000228881836,28.219999313354492,30.719999313354492,31.93000030517578,23.830551147460938,0.09990183264017105,-0.15799999237060547,-0.00752250337973237,-1.1406151056289673,1777842502055469430
1777842502253559025,1.9196687652760912e-36,6.0207014083862305,1.9196687652760912e-36,6.0207014083862305,0.0,0.0,-0.22321423888206482,-1.401298464324817e-45,-0.009765625,-0.3246753215789795,-0.3246753215789795,-1.401298464324817e-45,0.004833959974348545,0.0,-0.05075657740235329,0.004833959974348545,0.036254700273275375,-0.0024169799871742725,28.139999389648438,27.18000030517578,29.510000228881836,28.219999313354492,30.719999313354492,31.93000030517578,23.830551147460938,0.09990183264017105,-0.15799999237060547,-0.00752250337973237,-1.1406151056289673,1777842502165471386
1777842502353542057,1.9196687652760912e-36,6.0207014083862305,1.9196687652760912e-36,6.0207014083862305,0.0,0.0,275.1227722167969,175.05899047851562,78.68280029296875,243.10154724121094,84.33280944824219,74.83920288085938,0.004833959974348545,0.0,-0.05075657740235329,0.004833959974348545,0.036254700273275375,-0.0024169799871742725,0.0,0.0,0.0,0.0,0.0,0.0,23.830551147460938,0.0,0.0,0.0,0.0,1777842502165471386
1777842502453549664,-8.826083533881149e+33,6.020715236663818,-8.826083533881149e+33,6.020715236663818,0.0,0.0,275.1227722167969,175.05899047851562,78.68280029296875,243.10154724121094,84.33280944824219,74.83920288085938,-0.22321423888206482,-1.401298464324817e-45,-0.009765625,-0.3246753215789795,-0.3246753215789795,-1.401298464324817e-45,0.0,0.0,0.0,0.0,0.0,0.0,23.830551147460938,0.0,0.0,0.0,0.0,1777842502362474551
1777842502553562474,-9.825606715097605e-25,6.020720481872559,-9.825606715097605e-25,6.020720481872559,0.0,0.0,275.1227722167969,175.05899047851562,78.68280029296875,243.10154724121094,84.33280944824219,74.83920288085938,-0.22321423888206482,-1.401298464324817e-45,-0.009765625,-0.3246753215789795,-0.3246753215789795,-1.401298464324817e-45,0.0,0.0,0.0,0.0,0.0,0.0,23.830551147460938,0.0,0.0,0.0,0.0,1777842502476474669
1777842502653530006,-9.825606715097605e-25,6.020720481872559,-9.825606715097605e-25,6.020720481872559,0.0,0.0,-2.0879168619730715e-12,6.020727157592773,-2.0879168619730715e-12,6.020727157592773,0.0,0.0,-0.22321423888206482,-1.401298464324817e-45,-0.009765625,-0.3246753215789795,-0.3246753215789795,-1.401298464324817e-45,0.0,0.0,0.0,0.0,0.0,0.0,23.830551147460938,0.0,0.0,0.0,0.0,1777842502476474669
1777842502753555186,-0.22321423888206482,-1.401298464324817e-45,-0.009765625,-0.3246753215789795,-0.3246753215789795,-1.401298464324817e-45,-0.0008885965798981488,6.02073335647583,-0.0008885965798981488,6.02073335647583,0.0,0.0,275.0096435546875,175.00930786132812,78.9898910522461,243.0089111328125,84.0066146850586,74.99188232421875,0.0,0.0,0.0,0.0,0.0,0.0,23.830551147460938,0.0,0.0,0.0,0.0,1777842502675470730
1777842502853549903,-1.0425216195691694e+29,6.020740032196045,-1.0425216195691694e+29,6.020740032196045,0.0,0.0,-0.0008885965798981488,6.02073335647583,-0.0008885965798981488,6.02073335647583,0.0,0.0,-0.22321423888206482,-1.401298464324817e-45,-0.009765625,-0.3246753215789795,-0.3246753215789795,-1.401298464324817e-45,0.0,0.0,0.0,0.0,0.0,0.0,23.830551147460938,0.0,0.0,0.0,0.0,1777842502762253327
1777842502953536010,-1.0425216195691694e+29,6.020740032196045,-1.0425216195691694e+29,6.020740032196045,0.0,0.0,-0.0008885965798981488,6.02073335647583,-0.0008885965798981488,6.02073335647583,0.0,0.0,-0.22321423888206482,-1.401298464324817e-45,-0.009765625,-0.3246753215789795,-0.3246753215789795,-1.401298464324817e-45,0.0,0.0,0.0,0.0,0.0,0.0,23.830551147460938,0.0,0.0,0.0,0.0,1777842502762253327
1777842503053682542,-1.0425216195691694e+29,6.020740032196045,-1.0425216195691694e+29,6.020740032196045,0.0,0.0,-0.0008885965798981488,6.02073335647583,-0.0008885965798981488,6.02073335647583,0.0,0.0,-0.22321423888206482,-1.401298464324817e-45,-0.009765625,-0.3246753215789795,-0.3246753215789795,-1.401298464324817e-45,0.0,0.0,0.0,0.0,0.0,0.0,23.830551147460938,0.0,0.0,0.0,0.0,1777842502762253327
1777842503153574352,-1.0425216195691694e+29,6.020740032196045,-1.0425216195691694e+29,6.020740032196045,0.0,0.0,-0.0008885965798981488,6.02073335647583,-0.0008885965798981488,6.02073335647583,0.0,0.0,-0.22321423888206482,-1.401298464324817e-45,-0.009765625,-0.3246753215789795,-0.3246753215789795,-1.401298464324817e-45,0.0,0.0,0.0,0.0,0.0,0.0,23.830551147460938,0.0,0.0,0.0,0.0,1777842502762253327
1777842503253560162,-1.0425216195691694e+29,6.020740032196045,-1.0425216195691694e+29,6.020740032196045,0.0,0.0,-0.0008885965798981488,6.02073335647583,-0.0008885965798981488,6.02073335647583,0.0,0.0,-0.22321423888206482,-1.401298464324817e-45,-0.009765625,-0.3246753215789795,-0.3246753215789795,-1.401298464324817e-45,0.0,0.0,0.0,0.0,0.0,0.0,23.830551147460938,0.0,0.0,0.0,0.0,1777842502762253327
1777842503353592231,0.005639619659632444,0.0,-0.05156223848462105,0.0016113199526444077,0.03383772075176239,-0.0040282998234033585,9.856691359106834e-40,6.020759582519531,9.856691359106834e-40,6.020759582519531,0.0,0.0,275.0096435546875,175.00930786132812,78.9898910522461,243.0089111328125,84.0066146850586,74.99188232421875,0.0,0.0,0.0,0.0,0.0,0.0,23.830551147460938,0.0,0.0,0.0,0.0,1777842503329292850
1777842503453567411,0.004833959974348545,0.0,-0.0483395978808403,0.0008056599763222039,0.03464337810873985,-0.0040282998234033585,2.144227740693447e+33,6.020766258239746,2.144227740693447e+33,6.020766258239746,0.0,0.0,275.0096435546875,175.00930786132812,78.9898910522461,243.0089111328125,84.0066146850586,74.99188232421875,0.0,0.0,0.0,0.0,0.0,0.0,23.830551147460938,0.0,0.0,0.0,0.0,1777842503429305920
1777842503553574147,0.005639619659632444,0.0,-0.05236789956688881,0.0040282998234033585,0.03464337810873985,-0.007250939961522818,-22869.677734375,6.020772457122803,-22869.677734375,6.020772457122803,0.0,0.0,0.0,0.0,0.0,0.0,0.0,0.0,0.0,0.0,0.0,0.0,0.0,0.0,23.830551147460938,0.0,0.0,0.0,0.0,1777842503529383304
1777842503653575179,0.006445279810577631,0.0016113199526444077,-0.05156223848462105,0.0008056599763222039,0.03222639858722687,-0.0032226399052888155,-0.22321423888206482,-1.401298464324817e-45,-0.009765625,-0.3246753215789795,-0.3246753215789795,-1.401298464324817e-45,320.4751281738281,6.020780086517334,320.4751281738281,6.020780086517334,0.0,0.0,28.139999389648438,27.100000381469727,29.510000228881836,28.139999389648438,30.8799991607666,31.93000030517578,23.830551147460938,0.1031244695186615,-0.15567222237586975,-0.009529590606689453,-1.139540195465088,1777842503629503300
1777842503753565249,0.006445279810577631,0.0016113199526444077,-0.05156223848462105,0.0008056599763222039,0.03222639858722687,-0.0032226399052888155,-0.22321423888206482,-1.401298464324817e-45,-0.009765625,-0.3246753215789795,-0.3246753215789795,-1.401298464324817e-45,320.4751281738281,6.020780086517334,320.4751281738281,6.020780086517334,0.0,0.0,28.139999389648438,27.100000381469727,29.510000228881836,28.139999389648438,30.8799991607666,31.93000030517578,23.830551147460938,0.1031244695186615,-0.15567222237586975,-0.009529590606689453,-1.139540195465088,1777842503629503300
1777842503853595596,-2.6609909544148327e-38,6.0208001136779785,-2.6609909544148327e-38,6.0208001136779785,0.0,0.0,-0.22321423888206482,-1.401298464324817e-45,-0.009765625,-0.3246753215789795,-0.3246753215789795,-1.401298464324817e-45,320.4751281738281,6.020780086517334,320.4751281738281,6.020780086517334,0.0,0.0,28.139999389648438,27.100000381469727,29.510000228881836,28.139999389648438,30.8799991607666,31.93000030517578,23.830551147460938,0.1031244695186615,-0.15567222237586975,-0.009529590606689453,-1.139540195465088,1777842503791480139
1777842503953580294,0.005639619659632444,0.0,-0.05075657740235329,0.0024169799871742725,0.0378660187125206,-0.004833959974348545,2.846811973717721e+23,6.020808219909668,2.846811973717721e+23,6.020808219909668,0.0,0.0,320.4751281738281,6.020780086517334,320.4751281738281,6.020780086517334,0.0,0.0,0.0,0.0,0.0,0.0,0.0,0.0,23.830551147460938,0.0,0.0,0.0,0.0,1777842503861855810
1777842504053567753,0.005639619659632444,0.0,-0.05075657740235329,0.0024169799871742725,0.0378660187125206,-0.004833959974348545,2.846811973717721e+23,6.020808219909668,2.846811973717721e+23,6.020808219909668,0.0,0.0,320.4751281738281,6.020780086517334,320.4751281738281,6.020780086517334,0.0,0.0,0.0,0.0,0.0,0.0,0.0,0.0,23.830551147460938,0.0,0.0,0.0,0.0,1777842503861855810
1777842504153582748,0.005639619659632444,0.0,-0.05236789956688881,0.0016113199526444077,0.036254700273275375,-0.0032226399052888155,2.846811973717721e+23,6.020808219909668,2.846811973717721e+23,6.020808219909668,0.0,0.0,-1.9881810834766795e+25,6.0208234786987305,-1.9881810834766795e+25,6.0208234786987305,0.0,0.0,0.0,0.0,0.0,0.0,0.0,0.0,23.830551147460938,0.0,0.0,0.0,0.0,1777842504069786494
1777842504253585558,275.0096435546875,175.00930786132812,78.9898910522461,243.0089111328125,84.0066146850586,74.99188232421875,2.846811973717721e+23,6.020808219909668,2.846811973717721e+23,6.020808219909668,0.0,0.0,-1.9881810834766795e+25,6.0208234786987305,-1.9881810834766795e+25,6.0208234786987305,0.0,0.0,0.0,0.0,0.0,0.0,0.0,0.0,23.830551147460938,0.0,0.0,0.0,0.0,1777842504217471469
1777842504353582257,-0.22321423888206482,-1.401298464324817e-45,-0.009765625,-0.3246753215789795,-0.3246753215789795,-1.401298464324817e-45,0.0024169799871742725,0.004833959974348545,-0.05156223848462105,0.0040282998234033585,0.035449039191007614,-0.006445279810577631,2.853163736629867e-14,6.020833969116211,2.853163736629867e-14,6.020833969116211,0.0,0.0,0.0,0.0,0.0,0.0,0.0,0.0,23.830551147460938,0.0,0.0,0.0,0.0,1777842504265263580
1777842504453592844,-0.22321423888206482,-1.401298464324817e-45,-0.009765625,-0.3246753215789795,-0.3246753215789795,-1.401298464324817e-45,0.0024169799871742725,0.004833959974348545,-0.05156223848462105,0.0040282998234033585,0.035449039191007614,-0.006445279810577631,2.853163736629867e-14,6.020833969116211,2.853163736629867e-14,6.020833969116211,0.0,0.0,0.0,0.0,0.0,0.0,0.0,0.0,23.830551147460938,0.0,0.0,0.0,0.0,1777842504265263580
1777842504553588858,0.0,0.0,-0.05236789956688881,0.0,0.035449039191007614,-0.004833959974348545,2242718203904.0,6.02084493637085,2242718203904.0,6.02084493637085,0.0,0.0,2.853163736629867e-14,6.020833969116211,2.853163736629867e-14,6.020833969116211,0.0,0.0,0.0,0.0,0.0,0.0,0.0,0.0,23.830551147460938,0.0,0.0,0.0,0.0,1777842504481115551
1777842504653573446,94625.5703125,6.0208516120910645,94625.5703125,6.0208516120910645,0.0,0.0,-0.22321423888206482,-1.401298464324817e-45,-0.009765625,-0.3246753215789795,-0.3246753215789795,-1.401298464324817e-45,2.853163736629867e-14,6.020833969116211,2.853163736629867e-14,6.020833969116211,0.0,0.0,0.0,0.0,0.0,0.0,0.0,0.0,23.830551147460938,0.0,0.0,0.0,0.0,1777842504574392412
1777842504753584348,94625.5703125,6.0208516120910645,94625.5703125,6.0208516120910645,0.0,0.0,275.1227722167969,175.05899047851562,78.68280029296875,243.10154724121094,84.33280944824219,74.83920288085938,-0.22321423888206482,-1.401298464324817e-45,-0.009765625,-0.3246753215789795,-0.3246753215789795,-1.401298464324817e-45,0.0,0.0,0.0,0.0,0.0,0.0,23.830551147460938,0.0,0.0,0.0,0.0,1777842504574392412
1777842504853600806,1614675.375,6.020864486694336,1614675.375,6.020864486694336,0.0,0.0,275.1227722167969,175.05899047851562,78.68280029296875,243.10154724121094,84.33280944824219,74.83920288085938,275.0096435546875,175.00930786132812,78.9898910522461,243.0089111328125,84.0066146850586,74.99188232421875,0.0,0.0,0.0,0.0,0.0,0.0,23.830551147460938,0.0,0.0,0.0,0.0,1777842504763825087
1777842504953597857,1614675.375,6.020864486694336,1614675.375,6.020864486694336,0.0,0.0,275.0096435546875,175.00930786132812,78.9898910522461,243.0089111328125,84.0066146850586,74.99188232421875,275.1227722167969,175.05899047851562,78.68280029296875,243.10154724121094,84.33280944824219,74.83920288085938,0.0,0.0,0.0,0.0,0.0,0.0,23.830551147460938,0.0,0.0,0.0,0.0,1777842504763825087
1777842505053591445,275.0096435546875,175.00930786132812,78.9898910522461,243.0089111328125,84.0066146850586,74.99188232421875,275.0096435546875,175.00930786132812,78.9898910522461,243.0089111328125,84.0066146850586,74.99188232421875,275.1227722167969,175.05899047851562,78.68280029296875,243.10154724121094,84.33280944824219,74.83920288085938,0.0,0.0,0.0,0.0,0.0,0.0,23.830551147460938,0.0,0.0,0.0,0.0,1777842504995111205
1777842505153610440,8.701160451873857e-12,6.020882606506348,8.701160451873857e-12,6.020882606506348,0.0,0.0,275.0096435546875,175.00930786132812,78.9898910522461,243.0089111328125,84.0066146850586,74.99188232421875,275.1227722167969,175.05899047851562,78.68280029296875,243.10154724121094,84.33280944824219,74.83920288085938,0.0,0.0,0.0,0.0,0.0,0.0,23.830551147460938,0.0,0.0,0.0,0.0,1777842505073706978
1777842505253619583,2.8531969403213994e-14,6.02088737487793,2.8531969403213994e-14,6.02088737487793,0.0,0.0,275.0096435546875,175.00930786132812,78.9898910522461,243.0089111328125,84.0066146850586,74.99188232421875,-0.22321423888206482,-1.401298464324817e-45,-0.009765625,-0.3246753215789795,-0.3246753215789795,-1.401298464324817e-45,0.0,0.0,0.0,0.0,0.0,0.0,23.830551147460938,0.0,0.0,0.0,0.0,1777842505182475911
1777842505353602338,-1.0425480648214734e+29,6.02089262008667,-1.0425480648214734e+29,6.02089262008667,0.0,0.0,275.0096435546875,175.00930786132812,78.9898910522461,243.0089111328125,84.0066146850586,74.99188232421875,-0.22321423888206482,-1.401298464324817e-45,-0.009765625,-0.3246753215789795,-0.3246753215789795,-1.401298464324817e-45,0.0,0.0,0.0,0.0,0.0,0.0,23.830551147460938,0.0,0.0,0.0,0.0,1777842505292862590
1777842505453596129,1.2094635664779907e-21,6.020901679992676,1.2094635664779907e-21,6.020901679992676,0.0,0.0,275.0096435546875,175.00930786132812,78.9898910522461,243.0089111328125,84.0066146850586,74.99188232421875,275.1227722167969,175.05899047851562,78.68280029296875,243.10154724121094,84.33280944824219,74.83920288085938,0.0,0.0,0.0,0.0,0.0,0.0,23.830551147460938,0.0,0.0,0.0,0.0,1777842505387032009
1777842505553604495,-1.195852905632247e-13,6.020905017852783,-1.195852905632247e-13,6.020905017852783,0.0,0.0,275.0096435546875,175.00930786132812,78.9898910522461,243.0089111328125,84.0066146850586,74.99188232421875,-0.22321423888206482,-1.401298464324817e-45,-0.009765625,-0.3246753215789795,-0.3246753215789795,-1.401298464324817e-45,0.0,0.0,0.0,0.0,0.0,0.0,23.830551147460938,0.0,0.0,0.0,0.0,1777842505483229491
1777842505653610323,-1331.0821533203125,6.020912170410156,-1331.0821533203125,6.020912170410156,0.0,0.0,275.0096435546875,175.00930786132812,78.9898910522461,243.0089111328125,84.0066146850586,74.99188232421875,-0.22321423888206482,-1.401298464324817e-45,-0.009765625,-0.3246753215789795,-0.3246753215789795,-1.401298464324817e-45,0.0,0.0,0.0,0.0,0.0,0.0,23.830551147460938,0.0,0.0,0.0,0.0,1777842505614475224
1777842505753625874,7.050947949214686e-23,6.020919322967529,7.050947949214686e-23,6.020919322967529,0.0,0.0,275.0096435546875,175.00930786132812,78.9898910522461,243.0089111328125,84.0066146850586,74.99188232421875,-0.22321423888206482,-1.401298464324817e-45,-0.009765625,-0.3246753215789795,-0.3246753215789795,-1.401298464324817e-45,0.0,0.0,0.0,0.0,0.0,0.0,23.830551147460938,0.0,0.0,0.0,0.0,1777842505693472943
1777842505853601054,7.050947949214686e-23,6.020919322967529,7.050947949214686e-23,6.020919322967529,0.0,0.0,-0.22321423888206482,-1.401298464324817e-45,-0.009765625,-0.3246753215789795,-0.3246753215789795,-1.401298464324817e-45,0.004833959974348545,0.005639619659632444,-0.049950920045375824,0.0032226399052888155,0.035449039191007614,-0.0040282998234033585,28.219999313354492,27.260000228881836,29.510000228881836,28.309999465942383,30.799999237060547,31.93000030517578,23.830297470092773,0.08781693875789642,-0.15530705451965332,-0.007193882949650288,-1.141824722290039,1777842505693472943
1777842505953633679,7.050947949214686e-23,6.020919322967529,7.050947949214686e-23,6.020919322967529,0.0,0.0,-0.22321423888206482,-1.401298464324817e-45,-0.009765625,-0.3246753215789795,-0.3246753215789795,-1.401298464324817e-45,0.004833959974348545,0.005639619659632444,-0.049950920045375824,0.0032226399052888155,0.035449039191007614,-0.0040282998234033585,28.219999313354492,27.260000228881836,29.510000228881836,28.309999465942383,30.799999237060547,31.93000030517578,23.830297470092773,0.08781693875789642,-0.15530705451965332,-0.007193882949650288,-1.141824722290039,1777842505693472943
1777842506053606267,-0.22321423888206482,-1.401298464324817e-45,-0.009765625,-0.3246753215789795,-0.3246753215789795,-1.401298464324817e-45,0.004833959974348545,0.0,-0.05317355692386627,0.008056599646806717,0.036254700273275375,-0.006445279810577631,-391090.15625,6.020937919616699,-391090.15625,6.020937919616699,0.0,0.0,0.0,0.0,0.0,0.0,0.0,0.0,23.830297470092773,0.0,0.0,0.0,0.0,1777842505958745382
1777842506153605373,-0.22321423888206482,-1.401298464324817e-45,-0.009765625,-0.3246753215789795,-0.3246753215789795,-1.401298464324817e-45,1.2094706346717015e-21,6.020939826965332,1.2094706346717015e-21,6.020939826965332,0.0,0.0,275.0096435546875,175.00930786132812,78.9898910522461,243.0089111328125,84.0066146850586,74.99188232421875,0.0,0.0,0.0,0.0,0.0,0.0,23.830297470092773,0.0,0.0,0.0,0.0,1777842505958745382
1777842506253597590,-2837026957164544.0,6.020949363708496,-2837026957164544.0,6.020949363708496,0.0,0.0,1.2094706346717015e-21,6.020939826965332,1.2094706346717015e-21,6.020939826965332,0.0,0.0,275.0096435546875,175.00930786132812,78.9898910522461,243.0089111328125,84.0066146850586,74.99188232421875,0.0,0.0,0.0,0.0,0.0,0.0,23.830297470092773,0.0,0.0,0.0,0.0,1777842506204473420
1777842506353606048,-2837026957164544.0,6.020949363708496,-2837026957164544.0,6.020949363708496,0.0,0.0,1.2094706346717015e-21,6.020939826965332,1.2094706346717015e-21,6.020939826965332,0.0,0.0,275.0096435546875,175.00930786132812,78.9898910522461,243.0089111328125,84.0066146850586,74.99188232421875,0.0,0.0,0.0,0.0,0.0,0.0,23.830297470092773,0.0,0.0,0.0,0.0,1777842506204473420
1777842506453597506,-2837026957164544.0,6.020949363708496,-2837026957164544.0,6.020949363708496,0.0,0.0,1.2094706346717015e-21,6.020939826965332,1.2094706346717015e-21,6.020939826965332,0.0,0.0,275.0096435546875,175.00930786132812,78.9898910522461,243.0089111328125,84.0066146850586,74.99188232421875,0.0,0.0,0.0,0.0,0.0,0.0,23.830297470092773,0.0,0.0,0.0,0.0,1777842506204473420
1777842506553622983,-1.6992198004814482e-23,6.020954608917236,-1.6992198004814482e-23,6.020954608917236,0.0,0.0,275.0096435546875,175.00930786132812,78.9898910522461,243.0089111328125,84.0066146850586,74.99188232421875,275.1227722167969,175.05899047851562,78.68280029296875,243.10154724121094,84.33280944824219,74.83920288085938,0.0,0.0,0.0,0.0,0.0,0.0,23.830297470092773,0.0,0.0,0.0,0.0,1777842506542400629
1777842506653606071,1.209474875587928e-21,6.020962715148926,1.209474875587928e-21,6.020962715148926,0.0,0.0,275.0096435546875,175.00930786132812,78.9898910522461,243.0089111328125,84.0066146850586,74.99188232421875,275.1227722167969,175.05899047851562,78.68280029296875,243.10154724121094,84.33280944824219,74.83920288085938,0.0,0.0,0.0,0.0,0.0,0.0,23.830297470092773,0.0,0.0,0.0,0.0,1777842506644662892
1777842506753605047,-1.0425612874476255e+29,6.020968914031982,-1.0425612874476255e+29,6.020968914031982,0.0,0.0,275.0096435546875,175.00930786132812,78.9898910522461,243.0089111328125,84.0066146850586,74.99188232421875,275.1227722167969,175.05899047851562,78.68280029296875,243.10154724121094,84.33280944824219,74.83920288085938,0.0,0.0,0.0,0.0,0.0,0.0,23.830297470092773,0.0,0.0,0.0,0.0,1777842506741437727
1777842506853615357,2242780594176.0,6.020974636077881,2242780594176.0,6.020974636077881,0.0,0.0,3.630244557511914e+34,6.02097749710083,3.630244557511914e+34,6.02097749710083,0.0,0.0,-0.22321423888206482,-1.401298464324817e-45,-0.009765625,-0.3246753215789795,-0.3246753215789795,-1.401298464324817e-45,28.139999389648438,27.18000030517578,29.510000228881836,28.139999389648438,30.719999313354492,32.0099983215332,23.830297470092773,0.1031244769692421,-0.1567884236574173,-0.0046253204345703125,-1.1422991752624512,1777842506841573501
1777842506953622019,2242780594176.0,6.020974636077881,2242780594176.0,6.020974636077881,0.0,0.0,3.630244557511914e+34,6.02097749710083,3.630244557511914e+34,6.02097749710083,0.0,0.0,-0.22321423888206482,-1.401298464324817e-45,-0.009765625,-0.3246753215789795,-0.3246753215789795,-1.401298464324817e-45,28.139999389648438,27.18000030517578,29.510000228881836,28.139999389648438,30.719999313354492,32.0099983215332,23.830297470092773,0.1031244769692421,-0.1567884236574173,-0.0046253204345703125,-1.1422991752624512,1777842506841573501
1777842507053611940,-3.058390587990021e+31,6.020994663238525,-3.058390587990021e+31,6.020994663238525,0.0,0.0,3.630244557511914e+34,6.02097749710083,3.630244557511914e+34,6.02097749710083,0.0,0.0,-0.22321423888206482,-1.401298464324817e-45,-0.009765625,-0.3246753215789795,-0.3246753215789795,-1.401298464324817e-45,28.139999389648438,27.18000030517578,29.510000228881836,28.139999389648438,30.719999313354492,32.0099983215332,23.830297470092773,0.1031244769692421,-0.1567884236574173,-0.0046253204345703125,-1.1422991752624512,1777842507003469803
1777842507153622843,0.008862259797751904,0.0,-0.05156223848462105,0.0016113199526444077,0.035449039191007614,-0.006445279810577631,18.494478225708008,6.021003723144531,18.494478225708008,6.021003723144531,0.0,0.0,275.0096435546875,175.00930786132812,78.9898910522461,243.0089111328125,84.0066146850586,74.99188232421875,0.0,0.0,0.0,0.0,0.0,0.0,23.830297470092773,0.0,0.0,0.0,0.0,1777842507144341700
1777842507253630634,0.008862259797751904,0.0,-0.05156223848462105,0.0016113199526444077,0.035449039191007614,-0.006445279810577631,18.494478225708008,6.021003723144531,18.494478225708008,6.021003723144531,0.0,0.0,275.0096435546875,175.00930786132812,78.9898910522461,243.0089111328125,84.0066146850586,74.99188232421875,0.0,0.0,0.0,0.0,0.0,0.0,23.830297470092773,0.0,0.0,0.0,0.0,1777842507144341700
1777842507353618815,0.017724519595503807,0.0,-0.05317355692386627,0.0024169799871742725,0.03706035763025284,-0.005639619659632444,464905184.0,6.021012306213379,464905184.0,6.021012306213379,0.0,0.0,1.1780578823110656e+16,6.021013259887695,1.1780578823110656e+16,6.021013259887695,0.0,0.0,0.0,0.0,0.0,0.0,0.0,0.0,23.830297470092773,0.0,0.0,0.0,0.0,1777842507262468221
1777842507453628439,275.0096435546875,175.00930786132812,78.9898910522461,243.0089111328125,84.0066146850586,74.99188232421875,464905184.0,6.021012306213379,464905184.0,6.021012306213379,0.0,0.0,275.1227722167969,175.05899047851562,78.68280029296875,243.10154724121094,84.33280944824219,74.83920288085938,0.0,0.0,0.0,0.0,0.0,0.0,23.830297470092773,0.0,0.0,0.0,0.0,1777842507413472226
1777842507553633953,275.0096435546875,175.00930786132812,78.9898910522461,243.0089111328125,84.0066146850586,74.99188232421875,0.061372216790914536,6.021031379699707,0.061372216790914536,6.021031379699707,0.0,0.0,275.1227722167969,175.05899047851562,78.68280029296875,243.10154724121094,84.33280944824219,74.83920288085938,0.0,0.0,0.0,0.0,0.0,0.0,23.830297470092773,0.0,0.0,0.0,0.0,1777842507413472226
1777842507653640708,0.005639619659632444,0.0032226399052888155,-0.05075657740235329,0.0032226399052888155,0.03383772075176239,-0.0040282998234033585,0.061372216790914536,6.021031379699707,0.061372216790914536,6.021031379699707,0.0,0.0,275.1227722167969,175.05899047851562,78.68280029296875,243.10154724121094,84.33280944824219,74.83920288085938,0.0,0.0,0.0,0.0,0.0,0.0,23.830297470092773,0.0,0.0,0.0,0.0,1777842507604476759
1777842507753632906,-0.22321423888206482,-1.401298464324817e-45,-0.009765625,-0.3246753215789795,-0.3246753215789795,-1.401298464324817e-45,0.004833959974348545,0.0,-0.05236789956688881,0.0016113199526444077,0.03464337810873985,-0.004833959974348545,2.0232520625605837e+17,6.021041393280029,2.0232520625605837e+17,6.021041393280029,0.0,0.0,0.0,0.0,0.0,0.0,0.0,0.0,23.830297470092773,0.0,0.0,0.0,0.0,1777842507656801904
1777842507853644050,-0.22321423888206482,-1.401298464324817e-45,-0.009765625,-0.3246753215789795,-0.3246753215789795,-1.401298464324817e-45,0.004833959974348545,0.0,-0.05236789956688881,0.0016113199526444077,0.03464337810873985,-0.004833959974348545,2.0232520625605837e+17,6.021041393280029,2.0232520625605837e+17,6.021041393280029,0.0,0.0,0.0,0.0,0.0,0.0,0.0,0.0,23.830297470092773,0.0,0.0,0.0,0.0,1777842507656801904
1777842507953635897,275.1227722167969,175.05899047851562,78.68280029296875,243.10154724121094,84.33280944824219,74.83920288085938,0.008862259797751904,0.0,-0.05075657740235329,0.0008056599763222039,0.0378660187125206,-0.006445279810577631,-3.2245758392027992e-27,6.021053314208984,-3.2245758392027992e-27,6.021053314208984,0.0,0.0,0.0,0.0,0.0,0.0,0.0,0.0,23.830297470092773,0.0,0.0,0.0,0.0,1777842507899228060
1777842508053887374,275.1227722167969,175.05899047851562,78.68280029296875,243.10154724121094,84.33280944824219,74.83920288085938,275.1227722167969,175.05899047851562,78.68280029296875,243.10154724121094,84.33280944824219,74.83920288085938,-0.22321423888206482,-1.401298464324817e-45,-0.009765625,-0.3246753215789795,-0.3246753215789795,-1.401298464324817e-45,0.0,0.0,0.0,0.0,0.0,0.0,23.830297470092773,0.0,0.0,0.0,0.0,1777842507899228060
1777842508153649813,4.42242189535591e-8,6.021066188812256,4.42242189535591e-8,6.021066188812256,0.0,0.0,275.1227722167969,175.05899047851562,78.68280029296875,243.10154724121094,84.33280944824219,74.83920288085938,-0.22321423888206482,-1.401298464324817e-45,-0.009765625,-0.3246753215789795,-0.3246753215789795,-1.401298464324817e-45,0.0,0.0,0.0,0.0,0.0,0.0,23.830297470092773,0.0,0.0,0.0,0.0,1777842508104480365
1777842508253654771,3.3027772365585803e-35,6.021072864532471,3.3027772365585803e-35,6.021072864532471,0.0,0.0,275.1227722167969,175.05899047851562,78.68280029296875,243.10154724121094,84.33280944824219,74.83920288085938,275.0096435546875,175.00930786132812,78.9898910522461,243.0089111328125,84.0066146850586,74.99188232421875,0.0,0.0,0.0,0.0,0.0,0.0,23.830297470092773,0.0,0.0,0.0,0.0,1777842508188482082
1777842508353702285,-4.1298544534283546e-16,6.021077632904053,-4.1298544534283546e-16,6.021077632904053,0.0,0.0,275.1227722167969,175.05899047851562,78.68280029296875,243.10154724121094,84.33280944824219,74.83920288085938,275.0096435546875,175.00930786132812,78.9898910522461,243.0089111328125,84.0066146850586,74.99188232421875,0.0,0.0,0.0,0.0,0.0,0.0,23.830297470092773,0.0,0.0,0.0,0.0,1777842508316470415
1777842508453635983,132210941952.0,6.021083831787109,132210941952.0,6.021083831787109,0.0,0.0,275.0096435546875,175.00930786132812,78.9898910522461,243.0089111328125,84.0066146850586,74.99188232421875,-0.22321423888206482,-1.401298464324817e-45,-0.009765625,-0.3246753215789795,-0.3246753215789795,-1.401298464324817e-45,0.0,0.0,0.0,0.0,0.0,0.0,23.830297470092773,0.0,0.0,0.0,0.0,1777842508413471307
1777842508553657979,132210941952.0,6.021083831787109,132210941952.0,6.021083831787109,0.0,0.0,275.0096435546875,175.00930786132812,78.9898910522461,243.0089111328125,84.0066146850586,74.99188232421875,-0.22321423888206482,-1.401298464324817e-45,-0.009765625,-0.3246753215789795,-0.3246753215789795,-1.401298464324817e-45,0.0,0.0,0.0,0.0,0.0,0.0,23.830297470092773,0.0,0.0,0.0,0.0,1777842508413471307
1777842508653655029,3.630296550993564e+34,6.021091938018799,3.630296550993564e+34,6.021091938018799,0.0,0.0,275.0096435546875,175.00930786132812,78.9898910522461,243.0089111328125,84.0066146850586,74.99188232421875,-0.22321423888206482,-1.401298464324817e-45,-0.009765625,-0.3246753215789795,-0.3246753215789795,-1.401298464324817e-45,0.0,0.0,0.0,0.0,0.0,0.0,23.830297470092773,0.0,0.0,0.0,0.0,1777842508567662675
1777842508753662228,2.3573113813553926e-25,6.02109956741333,2.3573113813553926e-25,6.02109956741333,0.0,0.0,275.1227722167969,175.05899047851562,78.68280029296875,243.10154724121094,84.33280944824219,74.83920288085938,-0.22321423888206482,-1.401298464324817e-45,-0.009765625,-0.3246753215789795,-0.3246753215789795,-1.401298464324817e-45,0.0,0.0,0.0,0.0,0.0,0.0,23.830297470092773,0.0,0.0,0.0,0.0,1777842508683860930
1777842508853644020,2.3573113813553926e-25,6.02109956741333,2.3573113813553926e-25,6.02109956741333,0.0,0.0,275.1227722167969,175.05899047851562,78.68280029296875,243.10154724121094,84.33280944824219,74.83920288085938,-0.22321423888206482,-1.401298464324817e-45,-0.009765625,-0.3246753215789795,-0.3246753215789795,-1.401298464324817e-45,0.0,0.0,0.0,0.0,0.0,0.0,23.830297470092773,0.0,0.0,0.0,0.0,1777842508683860930
1777842508953652719,-0.22321423888206482,-1.401298464324817e-45,-0.009765625,-0.3246753215789795,-0.3246753215789795,-1.401298464324817e-45,0.0040282998234033585,0.0,-0.05236789956688881,0.0032226399052888155,0.03706035763025284,-0.0016113199526444077,-0.22321423888206482,-1.401298464324817e-45,-0.009765625,-0.3246753215789795,-0.3246753215789795,-1.401298464324817e-45,28.139999389648438,27.18000030517578,29.510000228881836,28.219999313354492,30.799999237060547,31.93000030517578,23.830297470092773,0.10473579913377762,-0.15550413727760315,-0.010842879302799702,-1.1410291194915771,1777842508882247452
1777842509053674658,9.98739152882702e+20,6.0211181640625,9.98739152882702e+20,6.0211181640625,0.0,0.0,0.0040282998234033585,0.0,-0.05236789956688881,0.0032226399052888155,0.03706035763025284,-0.0016113199526444077,275.1227722167969,175.05899047851562,78.68280029296875,243.10154724121094,84.33280944824219,74.83920288085938,0.0,0.0,0.0,0.0,0.0,0.0,23.830297470092773,0.0,0.0,0.0,0.0,1777842508996381793
1777842509153663227,4.787181135785257e+24,6.0211262702941895,4.787181135785257e+24,6.0211262702941895,0.0,0.0,0.0040282998234033585,0.0,-0.05236789956688881,0.0032226399052888155,0.03706035763025284,-0.0016113199526444077,275.1227722167969,175.05899047851562,78.68280029296875,243.10154724121094,84.33280944824219,74.83920288085938,0.0,0.0,0.0,0.0,0.0,0.0,23.830297470092773,0.0,0.0,0.0,0.0,1777842509109477296
1777842509253666667,4.787181135785257e+24,6.0211262702941895,4.787181135785257e+24,6.0211262702941895,0.0,0.0,0.004833959974348545,0.0008056599763222039,-0.049950920045375824,0.0032226399052888155,0.03706035763025284,-0.004833959974348545,1.3492518226272768e-26,6.021132469177246,1.3492518226272768e-26,6.021132469177246,0.0,0.0,0.0,0.0,0.0,0.0,0.0,0.0,23.830297470092773,0.0,0.0,0.0,0.0,1777842509109477296
1777842509353673773,4.787181135785257e+24,6.0211262702941895,4.787181135785257e+24,6.0211262702941895,0.0,0.0,275.1227722167969,175.05899047851562,78.68280029296875,243.10154724121094,84.33280944824219,74.83920288085938,-0.22321423888206482,-1.401298464324817e-45,-0.009765625,-0.3246753215789795,-0.3246753215789795,-1.401298464324817e-45,28.139999389648438,27.18000030517578,29.510000228881836,28.139999389648438,30.799999237060547,31.93000030517578,23.830991744995117,0.09829051792621613,-0.15694895386695862,-0.006869236472994089,-1.1413720846176147,1777842509109477296
1777842509453659213,27446446.0,6.021144390106201,27446446.0,6.021144390106201,0.0,0.0,275.1227722167969,175.05899047851562,78.68280029296875,243.10154724121094,84.33280944824219,74.83920288085938,-0.22321423888206482,-1.401298464324817e-45,-0.009765625,-0.3246753215789795,-0.3246753215789795,-1.401298464324817e-45,28.139999389648438,27.18000030517578,29.510000228881836,28.139999389648438,30.799999237060547,31.93000030517578,23.830991744995117,0.09829051792621613,-0.15694895386695862,-0.006869236472994089,-1.1413720846176147,1777842509409470874
1777842509553669282,275.0096435546875,175.00930786132812,78.9898910522461,243.0089111328125,84.0066146850586,74.99188232421875,275.1227722167969,175.05899047851562,78.68280029296875,243.10154724121094,84.33280944824219,74.83920288085938,-0.22321423888206482,-1.401298464324817e-45,-0.009765625,-0.3246753215789795,-0.3246753215789795,-1.401298464324817e-45,0.0,0.0,0.0,0.0,0.0,0.0,23.830991744995117,0.0,0.0,0.0,0.0,1777842509547801336
1777842509653659592,275.0096435546875,175.00930786132812,78.9898910522461,243.0089111328125,84.0066146850586,74.99188232421875,275.1227722167969,175.05899047851562,78.68280029296875,243.10154724121094,84.33280944824219,74.83920288085938,-0.22321423888206482,-1.401298464324817e-45,-0.009765625,-0.3246753215789795,-0.3246753215789795,-1.401298464324817e-45,0.0,0.0,0.0,0.0,0.0,0.0,23.830991744995117,0.0,0.0,0.0,0.0,1777842509547801336
1777842509753691680,275.0096435546875,175.00930786132812,78.9898910522461,243.0089111328125,84.0066146850586,74.99188232421875,275.1227722167969,175.05899047851562,78.68280029296875,243.10154724121094,84.33280944824219,74.83920288085938,-0.22321423888206482,-1.401298464324817e-45,-0.009765625,-0.3246753215789795,-0.3246753215789795,-1.401298464324817e-45,0.0,0.0,0.0,0.0,0.0,0.0,23.830991744995117,0.0,0.0,0.0,0.0,1777842509547801336
1777842509853682675,275.1227722167969,175.05899047851562,78.68280029296875,243.10154724121094,84.33280944824219,74.83920288085938,275.1227722167969,175.05899047851562,78.68280029296875,243.10154724121094,84.33280944824219,74.83920288085938,-0.22321423888206482,-1.401298464324817e-45,-0.009765625,-0.3246753215789795,-0.3246753215789795,-1.401298464324817e-45,0.0,0.0,0.0,0.0,0.0,0.0,23.830991744995117,0.0,0.0,0.0,0.0,1777842509831786784
1777842509953678818,275.0096435546875,175.00930786132812,78.9898910522461,243.0089111328125,84.0066146850586,74.99188232421875,275.1227722167969,175.05899047851562,78.68280029296875,243.10154724121094,84.33280944824219,74.83920288085938,0.0016113199526444077,0.0016113199526444077,-0.05156223848462105,0.0024169799871742725,0.035449039191007614,-0.006445279810577631,0.0,0.0,0.0,0.0,0.0,0.0,23.830991744995117,0.0,0.0,0.0,0.0,1777842509868468689
1777842510053648369,275.0096435546875,175.00930786132812,78.9898910522461,243.0089111328125,84.0066146850586,74.99188232421875,275.1227722167969,175.05899047851562,78.68280029296875,243.10154724121094,84.33280944824219,74.83920288085938,0.0016113199526444077,0.0016113199526444077,-0.05156223848462105,0.0024169799871742725,0.035449039191007614,-0.006445279810577631,0.0,0.0,0.0,0.0,0.0,0.0,23.830991744995117,0.0,0.0,0.0,0.0,1777842509868468689
1777842510153671568,1.0314507216858937e+37,6.021178722381592,1.0314507216858937e+37,6.021178722381592,0.0,0.0,275.0096435546875,175.00930786132812,78.9898910522461,243.0089111328125,84.0066146850586,74.99188232421875,275.1227722167969,175.05899047851562,78.68280029296875,243.10154724121094,84.33280944824219,74.83920288085938,0.0,0.0,0.0,0.0,0.0,0.0,23.830991744995117,0.0,0.0,0.0,0.0,1777842510063207532
1777842510253670063,4.674968342304996e-29,6.021190643310547,4.674968342304996e-29,6.021190643310547,0.0,0.0,275.0096435546875,175.00930786132812,78.9898910522461,243.0089111328125,84.0066146850586,74.99188232421875,275.1227722167969,175.05899047851562,78.68280029296875,243.10154724121094,84.33280944824219,74.83920288085938,0.0,0.0,0.0,0.0,0.0,0.0,23.830991744995117,0.0,0.0,0.0,0.0,1777842510215468745
1777842510353673095,7850969600.0,6.021193027496338,7850969600.0,6.021193027496338,0.0,0.0,-0.22321423888206482,-1.401298464324817e-45,-0.009765625,-0.3246753215789795,-0.3246753215789795,-1.401298464324817e-45,0.006445279810577631,0.0016113199526444077,-0.05075657740235329,0.0008056599763222039,0.036254700273275375,-0.0040282998234033585,28.219999313354492,27.18000030517578,29.350000381469727,28.219999313354492,30.799999237060547,32.0099983215332,23.830991744995117,0.09909617900848389,-0.1579705774784088,-0.00540614128112793,-1.1400659084320068,1777842510288893704
1777842510453684275,275.1227722167969,175.05899047851562,78.68280029296875,243.10154724121094,84.33280944824219,74.83920288085938,8.324756423710885e+25,6.021207809448242,8.324756423710885e+25,6.021207809448242,0.0,0.0,0.006445279810577631,0.0016113199526444077,-0.05075657740235329,0.0008056599763222039,0.036254700273275375,-0.0040282998234033585,28.219999313354492,27.18000030517578,29.350000381469727,28.219999313354492,30.799999237060547,32.0099983215332,23.830991744995117,0.09909617900848389,-0.1579705774784088,-0.00540614128112793,-1.1400659084320068,1777842510410473718
1777842510553679382,275.1227722167969,175.05899047851562,78.68280029296875,243.10154724121094,84.33280944824219,74.83920288085938,8.324756423710885e+25,6.021207809448242,8.324756423710885e+25,6.021207809448242,0.0,0.0,0.006445279810577631,0.0016113199526444077,-0.05075657740235329,0.0008056599763222039,0.036254700273275375,-0.0040282998234033585,28.219999313354492,27.18000030517578,29.350000381469727,28.219999313354492,30.799999237060547,32.0099983215332,23.830991744995117,0.09909617900848389,-0.1579705774784088,-0.00540614128112793,-1.1400659084320068,1777842510410473718
1777842510653687803,275.1227722167969,175.05899047851562,78.68280029296875,243.10154724121094,84.33280944824219,74.83920288085938,8.324756423710885e+25,6.021207809448242,8.324756423710885e+25,6.021207809448242,0.0,0.0,0.006445279810577631,0.0016113199526444077,-0.05075657740235329,0.0008056599763222039,0.036254700273275375,-0.0040282998234033585,28.219999313354492,27.18000030517578,29.350000381469727,28.219999313354492,30.799999237060547,32.0099983215332,23.830991744995117,0.09909617900848389,-0.1579705774784088,-0.00540614128112793,-1.1400659084320068,1777842510410473718
1777842510753710687,275.1227722167969,175.05899047851562,78.68280029296875,243.10154724121094,84.33280944824219,74.83920288085938,8.324756423710885e+25,6.021207809448242,8.324756423710885e+25,6.021207809448242,0.0,0.0,0.006445279810577631,0.0016113199526444077,-0.05075657740235329,0.0008056599763222039,0.036254700273275375,-0.0040282998234033585,28.219999313354492,27.18000030517578,29.350000381469727,28.219999313354492,30.799999237060547,32.0099983215332,23.830991744995117,0.09909617900848389,-0.1579705774784088,-0.00540614128112793,-1.1400659084320068,1777842510410473718
1777842510853706163,0.005639619659632444,0.0,-0.05156223848462105,0.0016113199526444077,0.03383772075176239,-0.007250939961522818,5.8880180275497665e+19,6.021212100982666,5.8880180275497665e+19,6.021212100982666,0.0,0.0,275.1227722167969,175.05899047851562,78.68280029296875,243.10154724121094,84.33280944824219,74.83920288085938,0.0,0.0,0.0,0.0,0.0,0.0,23.830991744995117,0.0,0.0,0.0,0.0,1777842510787489230
1777842510953695622,4.322539579916455e+29,6.021223545074463,4.322539579916455e+29,6.021223545074463,0.0,0.0,-0.22321423888206482,-1.401298464324817e-45,-0.009765625,-0.3246753215789795,-0.3246753215789795,-1.401298464324817e-45,0.005639619659632444,0.0,-0.05156223848462105,0.0008056599763222039,0.0378660187125206,-0.0040282998234033585,28.139999389648438,27.18000030517578,29.510000228881836,28.219999313354492,30.799999237060547,31.850000381469727,23.830991744995117,0.09990184009075165,-0.1572263240814209,-0.006836255080997944,-1.1407867670059204,1777842510869356199
1777842511053698654,-0.22321423888206482,-1.401298464324817e-45,-0.009765625,-0.3246753215789795,-0.3246753215789795,-1.401298464324817e-45,-8.826672793339849e+33,6.021234035491943,-8.826672793339849e+33,6.021234035491943,0.0,0.0,-0.22321423888206482,-1.401298464324817e-45,-0.009765625,-0.3246753215789795,-0.3246753215789795,-1.401298464324817e-45,0.0,0.0,0.0,0.0,0.0,0.0,23.830991744995117,0.0,0.0,0.0,0.0,1777842510969367731
1777842511153699630,-0.22321423888206482,-1.401298464324817e-45,-0.009765625,-0.3246753215789795,-0.3246753215789795,-1.401298464324817e-45,-8.826672793339849e+33,6.021234035491943,-8.826672793339849e+33,6.021234035491943,0.0,0.0,-0.22321423888206482,-1.401298464324817e-45,-0.009765625,-0.3246753215789795,-0.3246753215789795,-1.401298464324817e-45,0.0,0.0,0.0,0.0,0.0,0.0,23.830991744995117,0.0,0.0,0.0,0.0,1777842510969367731
1777842511253698959,-0.22321423888206482,-1.401298464324817e-45,-0.009765625,-0.3246753215789795,-0.3246753215789795,-1.401298464324817e-45,-8.826672793339849e+33,6.021234035491943,-8.826672793339849e+33,6.021234035491943,0.0,0.0,-0.22321423888206482,-1.401298464324817e-45,-0.009765625,-0.3246753215789795,-0.3246753215789795,-1.401298464324817e-45,0.0,0.0,0.0,0.0,0.0,0.0,23.830991744995117,0.0,0.0,0.0,0.0,1777842510969367731
1777842511353683084,-0.22321423888206482,-1.401298464324817e-45,-0.009765625,-0.3246753215789795,-0.3246753215789795,-1.401298464324817e-45,-8.826672793339849e+33,6.021234035491943,-8.826672793339849e+33,6.021234035491943,0.0,0.0,-0.22321423888206482,-1.401298464324817e-45,-0.009765625,-0.3246753215789795,-0.3246753215789795,-1.401298464324817e-45,0.0,0.0,0.0,0.0,0.0,0.0,23.830991744995117,0.0,0.0,0.0,0.0,1777842510969367731
1777842511453708468,-1.4467222443454178e-18,6.021242618560791,-1.4467222443454178e-18,6.021242618560791,0.0,0.0,275.1227722167969,175.05899047851562,78.68280029296875,243.10154724121094,84.33280944824219,74.83920288085938,0.004833959974348545,0.0008056599763222039,-0.04914525896310806,0.0,0.03464337810873985,-0.005639619659632444,28.139999389648438,27.18000030517578,29.59000015258789,28.219999313354492,30.799999237060547,32.0099983215332,23.830991744995117,0.10070749372243881,-0.15727002918720245,-0.00820120144635439,-1.1409122943878174,1777842511381847218
1777842511553692203,-0.22321423888206482,-1.401298464324817e-45,-0.009765625,-0.3246753215789795,-0.3246753215789795,-1.401298464324817e-45,0.0016113199526444077,0.0,-0.05317355692386627,0.0024169799871742725,0.03383772075176239,-0.0008056599763222039,4.422546240334668e-8,6.021256923675537,4.422546240334668e-8,6.021256923675537,0.0,0.0,0.0,0.0,0.0,0.0,0.0,0.0,23.830991744995117,0.0,0.0,0.0,0.0,1777842511474394206
1777842511653696791,-0.22321423888206482,-1.401298464324817e-45,-0.009765625,-0.3246753215789795,-0.3246753215789795,-1.401298464324817e-45,0.004833959974348545,0.005639619659632444,-0.049950920045375824,0.0016113199526444077,0.035449039191007614,-0.0032226399052888155,275.0096435546875,175.00930786132812,78.9898910522461,243.0089111328125,84.0066146850586,74.99188232421875,0.0,0.0,0.0,0.0,0.0,0.0,23.830991744995117,0.0,0.0,0.0,0.0,1777842511574475776
1777842511753722564,0.0016113199526444077,0.0,-0.05156223848462105,0.0,0.03867167979478836,-0.007250939961522818,-2.4479908957055647e-17,6.021270751953125,-2.4479908957055647e-17,6.021270751953125,0.0,0.0,-0.22321423888206482,-1.401298464324817e-45,-0.009765625,-0.3246753215789795,-0.3246753215789795,-1.401298464324817e-45,28.139999389648438,27.18000030517578,29.510000228881836,28.219999313354492,30.799999237060547,32.0099983215332,23.830991744995117,0.09587353467941284,-0.1569533348083496,-0.00742793083190918,-1.1407462358474731,1777842511674543919
