timestamp_ns,joint_1_pos,joint_2_pos,joint_3_pos,joint_4_pos,joint_5_pos,joint_6_pos,joint_1_vel,joint_2_vel,joint_3_vel,joint_4_vel,joint_5_vel,joint_6_vel,joint_1_current,joint_2_current,joint_3_current,joint_4_current,joint_5_current,joint_6_current,joint_1_temp,joint_2_temp,joint_3_temp,joint_4_temp,joint_5_temp,joint_6_temp,bus_voltage,bus_current,accel_x,accel_y,accel_z,timestamp_ns
1780982802188882358,-0.00002010700678331564,57.28773978575448,103.1320642072895,0.0015837158509460789,-0.0032495163806003156,0.00008266762459112134,-0.000032764686250884596,0.0007517935361272147,-0.000339199667286029,-0.002424927571312874,0.0008908763609135371,0.00012141740062629964,2.3873342499996704,5.942785134923806,3.0506180620871923,0.44609627670832613,0.3227510978948145,0.16249321011738188,25.0,25.0,25.0,25.0,25.0,25.0,24.0,12.312,0.0,0.0,1.0,1780982802188138532
1780982802289938214,-0.000020278036570281025,57.287721007954296,103.13206352357923,0.001584600613302306,-0.003257425139080958,0.00008303099056120871,0.00003832972215298043,-0.0005500448317700611,0.0003876199268136568,0.0026171656465181514,-0.0008600403063245267,-0.0001370790217388519,2.380839200119251,5.929692645378175,2.486896565602165,0.32238017991368567,0.31669586007544853,0.08616850436839457,25.0,25.0,25.0,25.0,25.0,25.0,24.0,11.523,0.0,0.0,1.0,1780982802280392514
1780982802389105794,-0.000020203948834647512,57.28772323332737,103.13206396229674,0.0015820034781393372,-0.003256240726282011,0.00008300218980980385,-0.000031779509633905384,0.0006676292137608447,-0.0003324004762451819,-0.002394794006161769,0.0008467485302372522,0.00011965312337845768,2.3803193093518726,5.942906017138042,3.0499942439966223,0.445867575085684,0.3226797368560841,0.16236460339600536,25.0,25.0,25.0,25.0,25.0,25.0,24.0,12.304,0.0,0.0,1.0,1780982802381456674
1780982802489031762,-0.00002006944915427137,57.28770766617809,103.13206559070876,0.0015930281362037137,-0.0032655284493172325,0.00008256718496992506,0.000032038168915267584,-0.0008933957002729497,0.0003387532510652506,0.002424263309093082,-0.000951168866694624,-0.0001191747277610997,2.377928483400931,5.929730811704057,2.487309256742293,0.3224720709851891,0.31667939086647967,0.0862205879271804,25.0,25.0,25.0,25.0,25.0,25.0,24.0,11.52,0.0,0.0,1.0,1780982802482169818
1780982802589831274,-0.00002020993496153508,57.2877105463373,103.13206424432316,0.0015827446891443007,-0.0032619983654665896,0.00008308557269656241,-0.000032216278950706736,0.0008294151358558524,-0.0003376606551973012,-0.0024253945735313496,0.0009227533049152525,0.00012003620039193198,2.375091279865023,5.94286221815511,3.049400525054852,0.4457114773898713,0.3226961436224698,0.16227418509374678,25.0,25.0,25.0,25.0,25.0,25.0,24.0,12.298,0.0,0.0,1.0,1780982802581223905
1780982802689938320,-0.00002007946580269148,57.28771845052649,103.13206562242156,0.0015915870605413035,-0.00326091954298693,0.00008253551298317189,0.00003212901094642009,-0.000637996054282844,0.000337073654212518,0.002404365113164599,-0.0008397049305407235,-0.000120800233991814,2.3739320868034364,5.929763049665625,2.4877586690613596,0.3225913563034437,0.31667199794219164,0.08628975449423183,25.0,25.0,25.0,25.0,25.0,25.0,24.0,11.517,0.0,0.0,1.0,1780982802682334347
1780982802789056375,-0.000018855629692133415,57.28774071886333,103.13206775737804,0.001593693984066608,-0.003251574062219955,0.00008212380882681698,-0.00007134091437589537,0.0004631562648407964,-0.0004731869026844995,-0.002531532761572309,0.0008945299824510869,0.00016032103063037985,2.3600862527606146,5.939248948205428,3.0465090188177184,0.44586575290752295,0.32302842583089153,0.16220045266428035,25.0,25.0,25.0,25.0,25.0,25.0,24.0,12.277,0.0,0.0,1.0,1780982802782502097
1780982802889300801,-0.000020026483730263434,57.287725511705226,103.1320657595298,0.0015921359753824158,-0.0032579146359927743,0.0000825602697617424,0.00002902434351982404,-0.0008111715472161699,0.00032875761600658103,0.0024007635618787104,-0.0009069958020083454,-0.00011681846069049388,2.3695713516823407,5.929603723824016,2.488060310595428,0.3227390980347094,0.31677623693748463,0.0863721207157369,25.0,25.0,25.0,25.0,25.0,25.0,24.0,11.513,0.0,0.0,1.0,1780982802882668689
1780982802989474122,-0.00002025230233068561,57.28773053310184,103.13206433418684,0.0015819533066525006,-0.0032534525424063343,0.00008310600854154666,-0.000031949090586765786,0.0008364017579707023,-0.0003331060791079877,-0.002416890067635244,0.0009206320818174972,0.00011879421398333622,2.376424404889096,5.943140873464445,3.0497234300092817,0.44574658051762994,0.3225588017064415,0.16229442974368874,25.0,25.0,25.0,25.0,25.0,25.0,24.0,12.3,0.0,0.0,1.0,1780982802982933652
1780982803089830747,-0.00002007210767959719,57.287729682807175,103.13206617274297,0.0015938038170596983,-0.003256665561045599,0.00008247877992491022,0.0000337874879419732,-0.0007832496099648348,0.0003426351649641269,0.00244487684095022,-0.000907949273963841,-0.00012256136834307735,2.3803785401914364,5.929565461208725,2.487010443088548,0.3223811442734288,0.31675561955928005,0.08617297279630767,25.0,25.0,25.0,25.0,25.0,25.0,24.0,11.522,0.0,0.0,1.0,1780982803083301981
1780982803189254272,-0.00002009532019194632,57.287735037496155,103.13206537724372,0.001585522527586879,-0.003252651027702427,0.00008283028053792829,-0.00003478499644112321,0.0008135556833867613,-0.00033966640601189893,-0.0024135935830689893,0.0009163191836668354,0.00012195931258939534,2.3823708235393735,5.943085771491149,3.0502458613108647,0.4459534866651885,0.3225888082463357,0.16240759612841607,25.0,25.0,25.0,25.0,25.0,25.0,24.0,12.307,0.0,0.0,1.0,1780982803182709020
1780982803289889785,-0.0000198126660803176,57.287733572356345,103.1320674554043,0.001597320152356767,-0.003256322645603624,0.00008216847116219435,0.00003985765101389738,-0.0007714697500488771,0.00035869075522900905,0.0024485174404128337,-0.0009167388776470124,-0.00012672867828485772,2.385264332580092,5.929638748184357,2.4865965505201677,0.32221056287893357,0.3167301213919149,0.08607991422798109,25.0,25.0,25.0,25.0,25.0,25.0,24.0,11.527,0.0,0.0,1.0,1780982803284327175
1780982803389182668,-0.00001986684154821649,57.28773845700817,103.13206652095664,0.0015886439183410764,-0.003252362380294723,0.00008257287175381575,-0.000040061290779325567,0.0007965670296129824,-0.0003544189865745977,-0.0024227516704297333,0.0009221585085727084,0.00012615683360001894,2.386439297651195,5.943021541780479,3.050586355741594,0.4460968981595914,0.322609768535654,0.16248554668489193,25.0,25.0,25.0,25.0,25.0,25.0,24.0,12.311,0.0,0.0,1.0,1780982803384677095
1780982803489017772,-0.000019591587005007234,57.28773664796323,103.1320685201984,0.0016001076960122428,-0.0032560891260836867,0.00008193401410829371,0.00004412131985605128,-0.0007634186106461786,0.0003695824791001903,0.002450299820351287,-0.0009225662347067412,-0.00012979595696595652,2.3886881701318052,5.9296957694202534,2.486314756210567,0.3220888383388877,0.3167124598913201,0.08601397661696791,25.0,25.0,25.0,25.0,25.0,25.0,24.0,11.53,0.0,0.0,1.0,1780982803484483149
1780982803589534043,-0.000019686727407464535,57.28774117059907,103.1320674274325,0.001591120611554885,-0.003252127326418401,0.00008238237321682608,-0.00004436123972449147,0.0007834781441121394,-0.00036633547056540047,-0.0024297305297689403,0.0009270644098159852,0.0001294874263827638,2.3893542698585657,5.942970589202814,3.05082339899037,0.4462014738313883,0.32262455440241444,0.16254200222569282,25.0,25.0,25.0,25.0,25.0,25.0,24.0,12.315,0.0,0.0,1.0,1780982803587899178
1780982803689642128,-0.0000223009771115048,57.287659798703714,103.13204791616444,0.0015274090719500865,-0.0032643346531505764,0.00008912560069503921,-0.000023564243999845793,-0.0021193994791643823,-0.00009053083037766711,0.0007740753122396129,-0.0009507667552559152,0.00002763190362536212,2.052673195724897,5.928518675043806,2.5141929337878746,0.3338125679278072,0.3186788770324326,0.09241165340426016,25.0,25.0,25.0,25.0,25.0,25.0,24.0,11.24,0.0,0.0,1.0,1780982803686087133
1780982803789013559,-0.00001730905732910945,57.28776256297768,103.13207571233458,0.0015983859044216672,-0.0032507878198350755,0.00008018064950650622,-0.00003322122815159312,0.0013916049675726956,-0.00025153003500593324,-0.0020395546151528274,0.0010607557197504882,0.00009883759907095176,2.5269765994948163,5.942053229189685,3.0620269548052996,0.4511928120951826,0.32354727117399656,0.1652249985658727,25.0,25.0,25.0,25.0,25.0,25.0,24.0,12.471,0.0,0.0,1.0,1780982803786497136
1780982803889535849,-0.000016388802507082576,57.28777215117167,103.13208200078994,0.0016249142169639337,-0.003254449394151413,0.00007820562107768509,0.00005754629708420116,-0.0008797330606648769,0.00040571332704013703,0.0025301091240750324,-0.0010109286582816567,-0.00014534280879417895,2.5138119034839614,5.930650714722452,2.4762398340961176,0.3175211507188273,0.3158026267898901,0.08356353082151471,25.0,25.0,25.0,25.0,25.0,25.0,24.0,11.638,0.0,0.0,1.0,1780982803886079815
1780982803989446273,-0.000017348514321313864,57.287758650796505,103.13207789446902,0.0016136057060433691,-0.00325527537690567,0.00007969881096819723,-0.00006978660501503831,0.0005628807472909136,-0.00044365361815386,-0.0025129720091301216,0.0009089233706421252,0.00015924424437486286,2.484891233670425,5.942077010325149,3.0583796948313138,0.4497173114699034,0.3233866548924031,0.16442315295707718,25.0,25.0,25.0,25.0,25.0,25.0,24.0,12.423,0.0,0.0,1.0,1780982803986932943
1780982804089357567,-0.000018311525614205912,57.28773548246248,103.13207486883346,0.0016178126402887376,-0.003263081676597642,0.00008059380368339149,0.00004477284041935645,-0.0008682860860418061,0.0003515103447474714,0.0023802804623202084,-0.0009449203460459816,-0.00012532602561078938,2.4420406882496972,5.930329113098032,2.482166919455873,0.3201063402359754,0.31626403998721425,0.08495715771129478,25.0,25.0,25.0,25.0,25.0,25.0,24.0,11.576,0.0,0.0,1.0,1780982804087614446
1780982804189448585,-0.000019097381377792872,57.28773129784581,103.13207145996115,0.0016123581575062,-0.0032613942549427543,0.000081600675302795,0.000048115254340595015,-0.0006900691553747329,0.0003720170090005229,0.002412284930882553,-0.0008897674581432742,-0.00013033235127429008,2.4045220033725876,5.9300148723415,2.485149864884917,0.32145588594060914,0.3165461603144478,0.08568546273964338,25.0,25.0,25.0,25.0,25.0,25.0,24.0,11.543,0.0,0.0,1.0,1780982804168715541
1780982804289737354,-0.000019187773893122177,57.28774296243949,103.13207103417396,0.001612204302345127,-0.003255930531555728,0.00008172145234238142,0.00005420042872236856,-0.0006227467033594435,0.0003934879903308418,0.0024382228025974415,-0.0008805232270164357,-0.00013644292930833086,2.3946153123433773,5.930035743771052,2.4860722007838048,0.32183753018908556,0.3165906824555096,0.08588533327130085,25.0,25.0,25.0,25.0,25.0,25.0,24.0,11.535,0.0,0.0,1.0,1780982804288173242
1780982804389976484,-0.00001915093460603821,57.28775232146785,103.13207116762588,0.0016128090466054456,-0.003252029085282119,0.00008167404532295384,0.00005570414617830309,-0.0006108354589524518,0.0003974675458340971,0.002435380234548301,-0.0008785737512944601,-0.00013754542715103957,2.395051148911886,5.930132430201807,2.4861127610752436,0.32181325435581987,0.3165525981948171,0.08587370764949594,25.0,25.0,25.0,25.0,25.0,25.0,24.0,11.536,0.0,0.0,1.0,1780982804368253887
1780982804489406509,-0.000019535125255262764,57.28775502933492,103.13206868917442,0.0015996567281274638,-0.003247306867039814,0.00008260195427323906,-0.00004718638717393142,0.0008721259316596496,-0.0003524793811923546,-0.0022410381645391166,0.0009385025584680726,0.00012383528886155838,2.3936275127057995,5.9424651499783,3.0507125614424235,0.44642943300742055,0.3228084373071746,0.16265119371248132,25.0,25.0,25.0,25.0,25.0,25.0,24.0,12.319,0.0,0.0,1.0,1780982804468813591
1780982804589974203,-0.000018861487401574654,57.287758589386385,103.132072382746,0.0016177894260636205,-0.0032506356377378265,0.00008143745921527868,0.000058855614531556235,-0.0006909857297756625,0.0004054405882960856,0.0024512897889837765,-0.0009204640681360564,-0.00014086855045100996,2.396613371126581,5.930239154972518,2.486056919774834,0.32174566000460475,0.3165115635004302,0.08583900073570423,25.0,25.0,25.0,25.0,25.0,25.0,24.0,11.537,0.0,0.0,1.0,1780982804570398789
1780982804689301196,-0.00001948748198823272,57.28775245527466,103.13206824896528,0.001599740430533998,-0.0032476411486146123,0.00008298858881256985,-0.00003438979745566384,0.0014523504466049863,-0.00009933306379437657,-0.0029933490387013184,0.0008223898991666258,0.000024208024318538905,2.3197185432760903,5.934600223617869,3.0394243615296492,0.44560987177907424,0.3227643392943883,0.16181186205360865,25.0,25.0,25.0,25.0,25.0,25.0,24.0,12.224,0.0,0.0,1.0,1780982804670627343
1780982804789652912,-0.000018500646928953135,57.28776875312376,103.13207375636536,0.0016216674660490694,-0.00324768636984522,0.00008113495056196421,0.000060587669385595863,-0.000576216592362668,0.0004066450053409007,0.002430524661152371,-0.0008712454365399563,-0.000144529327041102,2.3982512143467845,5.930511110601418,2.4861387741038214,0.32166389699679704,0.31638165714571276,0.08579820363296588,25.0,25.0,25.0,25.0,25.0,25.0,24.0,11.539,0.0,0.0,1.0,1780982804770052828
1780982804889250371,-0.00001849990610117112,57.28778148336643,103.13207302919264,0.0016137977818530536,-0.0032406305733028054,0.00008145455402132179,-0.000055624137867602915,0.0007750808700107889,-0.000385094582314754,-0.0023736639083024916,0.0009335001041582496,0.00013916471330910625,2.3983683672697715,5.9421303658560625,3.0509292787136224,0.44661132111691165,0.3229687152185398,0.1627489854622886,25.0,25.0,25.0,25.0,25.0,25.0,24.0,12.324,0.0,0.0,1.0,1780982804870642742
1780982804989075288,-0.00001804919454359882,57.28778423859334,103.13207540480118,0.0016257896561927513,-0.0032427687071610906,0.0000806438761309468,0.000059805305107973616,-0.0006983632785738123,0.0004005857082653996,0.0024237770414146384,-0.0009176248989404592,-0.0001436638817062231,2.399983330613734,5.930298604795074,2.485789601840179,0.32162252329764424,0.3164786662323269,0.0857724012194077,25.0,25.0,25.0,25.0,25.0,25.0,24.0,11.54,0.0,0.0,1.0,1780982804970532659
1780982805089401890,-0.000018061134799007655,57.28778873156973,103.1320745822903,0.0016188730018493196,-0.0032392074701818787,0.00008099481186824516,-0.000055372374981763825,0.0007308594917678041,-0.0003846139610978468,-0.0023644941691406875,0.0009137873309977472,0.00013901828918617856,2.400264472339825,5.942346405522655,3.0513019477053227,0.4466559716405678,0.3228733037482562,0.16277704159278997,25.0,25.0,25.0,25.0,25.0,25.0,24.0,12.326,0.0,0.0,1.0,1780982805070899100
1780982805189165389,-0.000017603518639559363,57.28778784140024,103.13207697583935,0.0016315478418928084,-0.0032429693274989846,0.00008017299491835128,0.00005970734587069289,-0.0006421832190419033,0.00039926465060591336,0.0024053049422234967,-0.0008918820109522566,-0.00014404208070857325,2.4019130970730425,5.930616957316424,2.4858849632145605,0.32153196186480654,0.3163185406514917,0.08572659271040242,25.0,25.0,25.0,25.0,25.0,25.0,24.0,11.542,0.0,0.0,1.0,1780982805171652624
1780982805290011853,-0.000017615269176405466,57.28779701639207,103.13207606224783,0.0016232124596061894,-0.0032372652867715093,0.0000804998932993897,-0.0000553377560973708,0.0007493080166567606,-0.00038510287050997315,-0.0023727103339144743,0.0009226418853531638,0.00013902867192427173,2.402256081370066,5.942066585214381,3.05124994533622,0.4467434586909662,0.32301439263218856,0.162822074511926,25.0,25.0,25.0,25.0,25.0,25.0,24.0,12.328,0.0,0.0,1.0,1780982805272236289
1780982805389304783,-0.00001714726775432978,57.28779876998015,103.1320784276339,0.001635299790254944,-0.003239856374270066,0.00007964823065005027,0.00005981046639900222,-0.0006852104890489866,0.0003999474817078708,0.002426086178202888,-0.0009120863441336822,-0.00014419076384652288,2.4039889431287325,5.930461252247398,2.4855405130837447,0.3214821424079402,0.31638759237881703,0.08569548016626521,25.0,25.0,25.0,25.0,25.0,25.0,24.0,11.544,0.0,0.0,1.0,1780982805372520388
1780982805489578062,-0.000017157846955335735,57.28780282086382,103.1320775642646,0.0016285664713233882,-0.0032364747269346193,0.00007998539716830874,-0.00005539611047418693,0.0007121797825089477,-0.0003849508942404102,-0.002365557483918316,0.000906300705225798,0.0001392774776864823,2.4043285358918833,5.942209621543273,3.0515850613095523,0.4467948703418999,0.32295186964081934,0.16285383950338908,25.0,25.0,25.0,25.0,25.0,25.0,24.0,12.331,0.0,0.0,1.0,1780982805472864559
1780982805589835011,-0.00001670716318231884,57.287802048624435,103.1320798816966,0.0016410990195602545,-0.003240132188555498,0.000079154908271949,0.00005962304593041607,-0.000644947383307886,0.00039826733186064346,0.002407070456004493,-0.0008926856975970251,-0.0001443134093974517,2.406069150520324,5.9306125162465,2.4854629441528653,0.3214039545284995,0.3163084588535279,0.08565338087310824,25.0,25.0,25.0,25.0,25.0,25.0,24.0,11.546,0.0,0.0,1.0,1780982805573759721
1780982805690015144,-0.00001673522329343345,57.28780892386947,103.1320788902016,0.00163299595599113,-0.0032353715931187307,0.0000794945485603925,-0.00005555770084259142,0.0007181147398322819,-0.0003859671389646719,-0.002370851718224299,0.000910258510034198,0.00013960468949017466,2.4063856725827097,5.942159190436851,3.051747138767124,0.44686335740281585,0.3229863955141428,0.1628921414325083,25.0,25.0,25.0,25.0,25.0,25.0,24.0,12.333,0.0,0.0,1.0,1780982805674172528
1780982805789834055,-0.00001629855569195856,57.28780721904687,103.13208114647992,0.0016456037061840208,-0.0032393785914629175,0.00007867742198576281,0.00005929762351978305,-0.0006896574114738403,0.000397619184307632,0.0024186503223208693,-0.000911777154004108,-0.00014391833386508563,2.4079508184823712,5.930539475470841,2.4852077441032363,0.32135250115166114,0.31633701784087204,0.08562268775273654,25.0,25.0,25.0,25.0,25.0,25.0,24.0,11.547,0.0,0.0,1.0,1780982805775201782
1780982805889354516,-0.000013858025013129756,57.287825102659845,103.13208334347682,0.0016591895850592002,-0.003232824433516677,0.00007689754311863209,-0.00005035743083877789,0.0006873763642102848,-0.0003850851160755263,-0.0023254542410531243,0.0008995116699653773,0.0001360514458322956,2.4089012285372915,5.942274065653124,3.0532189465196815,0.4465486423531303,0.32287931789528734,0.16280511601611056,25.0,25.0,25.0,25.0,25.0,25.0,24.0,12.337,0.0,0.0,1.0,1780982805875741266
1780982805989804146,-0.0000148615764778479,57.28781656973118,103.13208436741532,0.001663090945074125,-0.003239249278014478,0.00007706382356473815,0.0000446898566784818,-0.0007261016839808247,0.0003916953200059435,0.0022813569603331754,-0.0009242981346022684,-0.0001324710622479934,2.413077316994984,5.930578452189797,2.484702317140594,0.32119609634187685,0.3162956923902111,0.08553254722118872,25.0,25.0,25.0,25.0,25.0,25.0,24.0,11.551,0.0,0.0,1.0,1780982805976178193
1780982806089389914,-0.00001610020576842876,57.28781376131313,103.13208065105036,0.0016416651453334049,-0.0032355448740902445,0.00007869969282961239,-0.00006541582511572472,0.0006504176648140856,-0.0004173236038512163,-0.0025030331711699276,0.00091743772450378,0.00015106580610710577,2.4088053159034124,5.942151734632563,3.051986233345578,0.44694036285659794,0.32299887622944395,0.16293567949251375,25.0,25.0,25.0,25.0,25.0,25.0,24.0,12.336,0.0,0.0,1.0,1780982806076681011
1780982806189790045,-0.00001650416658730248,57.28780633315096,103.132080235744,0.001642938910735787,-0.003238905371600324,0.00007886763653110586,0.00005255278565082328,-0.0007207766935423536,0.0003763658385807464,0.0023196687742711446,-0.000899687451304134,-0.00013573948728524748,2.4072153339920304,5.930519254483012,2.4852737323257688,0.3213726962343988,0.31634831685327536,0.08563497662709432,25.0,25.0,25.0,25.0,25.0,25.0,24.0,11.546,0.0,0.0,1.0,1780982806177204114
1780982806289994031,-0.000017195291365577844,57.28780387257623,103.1320771950206,0.0016273928561379716,-0.0032358018349317253,0.00008001186859391517,-0.00006128238683340015,0.0006803429335260725,-0.0004046568539445897,-0.002450512970349524,0.0009152946126744252,0.00014598322805782992,2.4047574948263546,5.94223295958874,3.051631719508994,0.4468129719801616,0.3229428717407736,0.1628629175161514,25.0,25.0,25.0,25.0,25.0,25.0,24.0,12.331,0.0,0.0,1.0,1780982806278278583
1780982806389441092,-0.00001729395608878991,57.287798129399,103.13207774197814,0.0016323446325318717,-0.003239512503106046,0.00007984545637572251,0.00005489134139963082,-0.0007550311780029002,0.0003845422724833248,0.002362540412092542,-0.0009235009010437334,-0.00013779143365785714,2.4038580733276045,5.930583656991552,2.485688172865881,0.32146545267716203,0.31633092485784964,0.0856904597627481,25.0,25.0,25.0,25.0,25.0,25.0,24.0,11.544,0.0,0.0,1.0,1780982806378863761
1780982806489185238,-0.00001776628952628736,57.28779375636386,103.132075597217,0.0016201263285909257,-0.003238337199896071,0.00008068457879718363,-0.00005890132373262013,0.0007120827937397683,-0.00038789793542382895,-0.00242797117193354,0.0009055338708804146,0.00013893245333319206,2.401722864467375,5.942373878603603,3.051423020882564,0.4467129333006135,0.32286623996939096,0.16280641911587534,25.0,25.0,25.0,25.0,25.0,25.0,24.0,12.328,0.0,0.0,1.0,1780982806479634809
1780982806589763842,-0.000017681045401796023,57.2877902755714,103.13207694657648,0.0016268804543220436,-0.0032420613133473095,0.00008021406107578484,0.00005548335484874135,-0.0007546446832241432,0.0003739911988365116,0.002368399254928802,-0.0009052775550193674,-0.00013287013065499317,2.401043232828916,5.930316826786144,2.4857738512024925,0.3215684198334111,0.3164608877542008,0.08574686224462844,25.0,25.0,25.0,25.0,25.0,25.0,24.0,11.541,0.0,0.0,1.0,1780982806580898808
1780982806689716203,-0.000018011610181746473,57.28778830810433,103.13207541716964,0.001615429610584756,-0.0032405947761330657,0.00008081082632557819,-0.000056976625305481864,0.0006602716412332003,-0.0003647952735913904,-0.002392561050060001,0.0008494005830403241,0.0001300292947992019,2.399350859593882,5.9421328591254445,3.0509340560036193,0.4466662614637339,0.3229813636459619,0.1627741510327965,25.0,25.0,25.0,25.0,25.0,25.0,24.0,12.325,0.0,0.0,1.0,1780982806680932776
1780982806790093196,-0.000017832755483832406,57.28777541258913,103.13207713995952,0.001625502745156418,-0.003248820099443157,0.0000802967487436471,0.0000555872890615354,-0.0008676138857698727,0.00036036420175305497,0.0023962198641404365,-0.000932052689401133,-0.0001259032227126729,2.398917481056675,5.930390538748783,2.4860856518090797,0.32162243671506247,0.316426484692367,0.0857803957616229,25.0,25.0,25.0,25.0,25.0,25.0,24.0,11.539,0.0,0.0,1.0,1780982806781328468
1780982806889821230,-0.00001807894358067075,57.28777617751023,103.13207590486276,0.0016144151274883275,-0.0032465110340176863,0.00008077097269538218,-0.00005576900059190578,0.000811029268286789,-0.00034856349610350233,-0.0024165064177167415,0.0008905383065079668,0.00012204742677921136,2.3973300802773427,5.942404923355848,3.050930709462687,0.44658634443043943,0.32285639676711475,0.16273127132835316,25.0,25.0,25.0,25.0,25.0,25.0,24.0,12.323,0.0,0.0,1.0,1780982806882159056
1780982806989783806,-0.00001800163203996975,57.287771066537715,103.13207688691026,0.0016200154171927448,-0.0032504563503670666,0.00008042570340395042,0.00006071299244775133,-0.0007563740182850537,0.00036918912529941566,0.002469840768554777,-0.0008868131402908784,-0.00012716942801130758,2.3974426944400715,5.9302338433665716,2.4861324329956784,0.32167181872687484,0.31648909860418994,0.0858084461719205,25.0,25.0,25.0,25.0,25.0,25.0,24.0,11.538,0.0,0.0,1.0,1780982806983779452
1780982807089703108,-0.000022037743847329387,57.287723671960975,103.13205341501984,0.0014972107838205151,-0.003244789705450423,0.00008741252067925694,0.00003355864422878416,0.0018944054278258909,0.00029275739569212814,0.0003298757221702867,0.0006198900510758999,-0.00007965037201163702,2.285166881109133,5.949081407298381,3.037894778604179,0.44075132391542254,0.3222695261591105,0.1600134847620542,25.0,25.0,25.0,25.0,25.0,25.0,24.0,12.195,0.0,0.0,1.0,1780982807083958235
1780982807189341695,-0.000016669673693960958,57.28775681956003,103.1320809002879,0.0016248682249221825,-0.0032598317001485536,0.00007971405028101057,0.0000698797996997057,-0.0007580975897858961,0.0004572260993628626,0.0027093769906896686,-0.001005642492131473,-0.0001589190515814989,2.4133372004814904,5.929991126922226,2.48421013031531,0.32123927512678596,0.31653435735261365,0.0855473426255012,25.0,25.0,25.0,25.0,25.0,25.0,24.0,11.551,0.0,0.0,1.0,1780982807185735543
1780982807289405781,-0.000016455875995022543,57.287757016225214,103.13208137954032,0.0016228794753976323,-0.0032593451754538544,0.0000797431943984143,-0.00005675722033478043,0.0007843851169966882,-0.00039606851440197416,-0.0024620478154984272,0.0009554854961979908,0.00014235837943464438,2.412748518780346,5.942650904800258,3.05278295309348,0.44700340022534624,0.3228200770201112,0.16298334738118936,25.0,25.0,25.0,25.0,25.0,25.0,24.0,12.341,0.0,0.0,1.0,1780982807284906362
1780982807389796634,-0.00001596567086842635,57.28776599505284,103.1320837684982,0.0016322850413718316,-0.003258759677745529,0.00007882126915945675,0.00006156456757891442,-0.0005930515604710241,0.00041127498223897255,0.0024590808857304575,-0.0008882079324082565,-0.0001485470312028507,2.413821378323565,5.929938452288448,2.484119064719973,0.32123600161140975,0.3165554411972664,0.08554323715398197,25.0,25.0,25.0,25.0,25.0,25.0,24.0,11.551,0.0,0.0,1.0,1780982807386093083
1780982807489788659,-0.000016069959705140842,57.28777806961406,103.13208243692202,0.0016208400487222666,-0.003251271305535097,0.00007924773220685767,-0.00005862451298354847,0.0007952129289754554,-0.00040344289751668495,-0.0024874266011986083,0.0009677648249285312,0.00014438113201092743,2.412837605867844,5.942988338150264,3.0531028075735747,0.446975562972188,0.3226500926972861,0.1629732022863641,25.0,25.0,25.0,25.0,25.0,25.0,24.0,12.342,0.0,0.0,1.0,1780982807486961249
1780982807589655576,-0.000015796239932037375,57.28777581518584,103.13208420755906,0.0016311269557883325,-0.003254932901169397,0.0000786280523864761,0.00005927654136137032,-0.0007675128721821287,0.0004053078209447766,0.002484653339744562,-0.0009575325071097694,-0.00014484650633826322,2.412893382983547,5.9296879696929485,2.483981736675618,0.3212880207260295,0.3166878575950162,0.08556868071217627,25.0,25.0,25.0,25.0,25.0,25.0,24.0,11.55,0.0,0.0,1.0,1780982807586931366
1780982807689793747,-0.000014870151538071249,57.28779192719271,103.13208685658422,0.001628287422282159,-0.003249722408405513,0.00007792755277155124,-0.00009103364098072792,0.0004386193058414646,-0.0005230646096219003,-0.002703251035561975,0.0009338295256181158,0.000180459501532425,2.417964264361136,5.943046899996576,3.053590925827165,0.4471579189071808,0.3226533776487836,0.16307197054553263,25.0,25.0,25.0,25.0,25.0,25.0,24.0,12.347,0.0,0.0,1.0,1780982807687913544
1780982807789184498,-0.000015731085127912192,57.28777678226269,103.13208442297488,0.0016312645279426827,-0.003254737323819224,0.00007857566005063048,0.00005675539190943224,-0.0007970096859372796,0.00039560950496989256,0.0024676408942616965,-0.0009602893646527448,-0.0001419202025246306,2.4122109583439486,5.929690843851359,2.4840512947166493,0.3213091568971457,0.316690187127707,0.0855807778320437,25.0,25.0,25.0,25.0,25.0,25.0,24.0,11.55,0.0,0.0,1.0,1780982807787569544
1780982807889033096,-0.000016071443587735885,57.28777890248765,103.13208236130784,0.0016202169273447844,-0.003250830452728565,0.00007931137836498885,-0.0000594510125528234,0.0007660354162790421,-0.0004060038369477566,-0.0024861881888632135,0.0009573749199220394,0.00014540165447102823,2.4098618449967777,5.943011373616874,3.052828900532762,0.4468798849511883,0.32262849562723095,0.16291926564304024,25.0,25.0,25.0,25.0,25.0,25.0,24.0,12.338,0.0,0.0,1.0,1780982807888655277
1780982807989023668,-0.00001806114097932613,57.28774477143881,103.13207259740985,0.0015891465442887016,-0.0032549983244129816,0.00008249200106464116,5.232838230346514e-6,0.0018130521892620456,-0.00010088393748070737,-0.0015862955591582817,0.0010852069910886105,0.00005028823941482939,2.409965021224157,5.942740314475832,3.052627724556118,0.446844629633418,0.3227205899658026,0.1629082592944385,25.0,25.0,25.0,25.0,25.0,25.0,24.0,12.338,0.0,0.0,1.0,1780982807969320746
1780982808089142705,-0.000015569388185329438,57.28777779907587,103.13208489756413,0.0016306266066931363,-0.0032546253869242744,0.00007861067478673504,0.00006376906964455616,-0.0006976626328852048,0.0004273663357528657,0.0025500052596128596,-0.0009511126523022418,-0.00015141522280039788,2.416872597385786,5.929685198705908,2.4836077544743618,0.3211529889943356,0.31667240995801166,0.08549422870892819,25.0,25.0,25.0,25.0,25.0,25.0,24.0,11.553,0.0,0.0,1.0,1780982808069408302
1780982808189410651,-0.000015619829059935677,57.28778392298063,103.13208407982492,0.00162265858253733,-0.003250279910502718,0.00007896222008223054,-0.0000581944472393536,0.0007832039201615391,-0.00040201941387168414,-0.002478675986005674,0.000961418790933589,0.0001438941155134674,2.416341244794646,5.942986063150141,3.0534229286111976,0.44709570951901456,0.32266408362340254,0.16303913219680224,25.0,25.0,25.0,25.0,25.0,25.0,24.0,12.346,0.0,0.0,1.0,1780982808170851732
1780982808289784136,-0.00002077656728843675,57.28768602188791,103.13205773719372,0.001549560131649808,-0.0032658780244064,0.00008636760188555936,0.0002547411214915864,0.002634820440491286,0.0014558277949339548,0.004693788702105014,-0.0006118971625037301,-0.0004555143792787048,2.1743536770204233,5.940481328709073,2.5088711778325594,0.33347841900942826,0.31647587958843015,0.0913933588360901,25.0,25.0,25.0,25.0,25.0,25.0,24.0,11.365,0.0,0.0,1.0,1780982808271156919
1780982808389093774,-0.000012659033076156072,57.2878165812202,103.1320955431653,0.001636461198210883,-0.0032476032451642495,0.00007570560256997972,-0.00004551989833469735,0.001080814475703158,-0.0003447865674953753,-0.002390104015237965,0.0010381246182580943,0.00012796614524516797,2.549783680649131,5.942210133974534,3.0643335073993385,0.4519277422458768,0.3235744508230293,0.16563753860804484,25.0,25.0,25.0,25.0,25.0,25.0,24.0,12.497,0.0,0.0,1.0,1780982808371553270
1780982808489537529,-0.000012279338369835376,57.28781668463881,103.1320980843868,0.0016511500768908356,-0.003251087038318946,0.00007484879253531091,0.00005494078406896555,-0.0008957271706637841,0.0003925407710707071,0.0025360219381770324,-0.0010064191371090547,-0.00014140996291593812,2.5321725750085813,5.930304248001746,2.4741287929973215,0.3169756687450411,0.31590615169031416,0.08324859570605439,25.0,25.0,25.0,25.0,25.0,25.0,24.0,11.653,0.0,0.0,1.0,1780982808471806832
1780982808589055991,-0.000013346832472968922,57.28780370950269,103.1320935942621,0.001637787889898008,-0.0032514581368565387,0.0000762966935644015,-0.00006921904016017921,0.0005850986030290168,-0.0004302908146488546,-0.0025497968571992747,0.0008975623868751123,0.00015055897425070094,2.4966949512002112,5.942243972332297,3.0597244869408207,0.45005891011246074,0.32336265147347637,0.16462289985044787,25.0,25.0,25.0,25.0,25.0,25.0,24.0,12.437,0.0,0.0,1.0,1780982808573294434
1780982808689773310,-0.000014478195054328618,57.28777522685208,103.13209053112648,0.0016425590126427172,-0.003261919489049014,0.00007714721681921812,0.00004160749673509106,-0.001076347739986701,0.0003098431444506791,0.002395796766421633,-0.0009776531287816622,-0.00011071842276473302,2.4484646838316904,5.930306553547059,2.481456736851346,0.31993348548665335,0.3162339297802266,0.08485234818095638,25.0,25.0,25.0,25.0,25.0,25.0,24.0,11.581,0.0,0.0,1.0,1780982808678139748
1780982808789965104,-0.00001535673352007776,57.28777332840351,103.13208700738632,0.0016305405729213811,-0.0032587401017541546,0.00007824563292194342,-0.00005651310655552929,0.0009341391779504186,-0.00034697827493865356,-0.0024377508732800306,0.0009396149685812694,0.00011994292733670136,2.415094802014073,5.942610875668747,3.052894935525406,0.4471131701529776,0.3228519020797578,0.16303706339523727,25.0,25.0,25.0,25.0,25.0,25.0,24.0,12.344,0.0,0.0,1.0,1780982808776315172
1780982808889951912,-0.000015099508874571828,57.2877817063084,103.13208865964782,0.001640984536039105,-0.0032577127801062824,0.00007762148965730245,0.00005563462904052698,-0.0007449992439105819,0.00033819404539390147,0.0024310729686081787,-0.0008470466629689958,-0.0001173460780983424,2.416173177234215,5.930133017200112,2.484148329833984,0.32111339138618883,0.3164583642720329,0.08548466399808533,25.0,25.0,25.0,25.0,25.0,25.0,24.0,11.554,0.0,0.0,1.0,1780982808876210952
1780982808989914121,-0.000015275125335754225,57.28779745394731,103.1320874022156,0.001631175398419028,-0.0032488907932586,0.0000780352710392946,-0.000054488823277210704,0.000972371304607844,-0.0003357846353483088,-0.0024188337891435097,0.0009426248173253682,0.0001161207458123326,2.415592710618726,5.94248016486835,3.052833013189258,0.4471413864685885,0.32290330338596257,0.16305066182890174,25.0,25.0,25.0,25.0,25.0,25.0,24.0,12.344,0.0,0.0,1.0,1780982808976298072
1780982809089388002,-0.000014935399184997417,57.28779896486675,103.13208915769506,0.0016428402066648942,-0.003250783719423868,0.0000774606687018307,0.00005631655420854568,-0.0008337418602185123,0.00034435596546319525,0.002437961384100509,-0.0008929816185992458,-0.0001188915556511528,2.4167025069374426,5.930197531553058,2.4841434338883435,0.3210888366225475,0.3164336943218474,0.08547224767166337,25.0,25.0,25.0,25.0,25.0,25.0,24.0,11.554,0.0,0.0,1.0,1780982809076785453
1780982809189684201,-0.000015031244607382611,57.287803744042535,103.13208817665875,0.001634985159690913,-0.0032469716163380704,0.00007785745924257245,-0.000053730590518777725,0.0008545024402808552,-0.00033822156760249765,-0.0023916583386404742,0.0008966334346997013,0.0001179866634143738,2.4163882304224655,5.942455976527968,3.0529055861552004,0.447169869103675,0.32290942018026814,0.16306626444447514,25.0,25.0,25.0,25.0,25.0,25.0,24.0,12.345,0.0,0.0,1.0,1780982809177070320
1780982809289954628,-0.00001466816627038762,57.28780282899777,103.13209002857609,0.001646850351126402,-0.003250029326053906,0.00007725269983801643,0.0000564457968992229,-0.0007478278753043357,0.0003479128590582822,0.0024130345094377716,-0.0008613525265849238,-0.00012117583594835572,2.4174930249344544,5.9304665008971185,2.4842901391151724,0.32104112483559155,0.3163079769425942,0.08544929596001688,25.0,25.0,25.0,25.0,25.0,25.0,24.0,11.555,0.0,0.0,1.0,1780982809278354758
1780982809389946390,-0.000014742058411306593,57.287814669182154,103.13208897328563,0.0016375121318733617,-0.003243040183886459,0.00007761196938118866,-0.000053515324950143553,0.0008897679270996498,-0.0003430286425360379,-0.002394378096778621,0.0009195436477607598,0.00011961447608776497,2.4172826154760387,5.942202844971284,3.0527871290658655,0.4472185012534185,0.3230275814118573,0.16309023215422874,25.0,25.0,25.0,25.0,25.0,25.0,24.0,12.346,0.0,0.0,1.0,1780982809379361679
1780982809489811890,-0.00001436410356058222,57.28781973886326,103.13209077677004,0.0016480590468616577,-0.0032434345824482046,0.00007696765470623291,0.00005656067750918483,-0.0007565049082344854,0.0003531784099028026,0.002413832565601328,-0.0008734360286496511,-0.00012337505618579815,2.4183358762436207,5.930348390048125,2.484085113777255,0.32102634280518466,0.3163676252477508,0.08543863357182853,25.0,25.0,25.0,25.0,25.0,25.0,24.0,11.556,0.0,0.0,1.0,1780982809479969069
1780982809589944805,-0.000014423101432927454,57.287826224622165,103.13208978571,0.0016401548023297745,-0.0032388544459348643,0.00007733776520037002,-0.0000534924677929426,0.000833313548401111,-0.0003484389633942763,-0.002380290499789194,0.0009036803532766884,0.0001222365740411299,2.4181083283111096,5.942444432156464,3.0531000760655456,0.447221451868127,0.3229121215337745,0.16309642821252138,25.0,25.0,25.0,25.0,25.0,25.0,24.0,12.347,0.0,0.0,1.0,1780982809581151322
1780982809689141552,-0.000014022997177581436,57.287823254699795,103.1320917527643,0.0016528673613102555,-0.003242963277348598,0.00007668824716920551,0.00005688115016211393,-0.0007969309973757663,0.00036095317314836545,0.002425213426314074,-0.0009029214823163032,-0.00012630088117667634,2.419102782678503,5.9303267135313575,2.4839693479597047,0.32100779938921914,0.3163796870527973,0.08542679056994079,25.0,25.0,25.0,25.0,25.0,25.0,24.0,11.556,0.0,0.0,1.0,1780982809680370836
1780982809789692909,-0.000014080820043178931,57.287830657470536,103.13209068271888,0.0016444701830798016,-0.003237880711625097,0.00007706445021508488,-0.000053827178045640295,0.0008303884799526982,-0.0003568870020108546,-0.0023845574426260546,0.000915165163617632,0.00012553441882931623,2.418740921049741,5.942169917353384,3.052940808046746,0.4472612524302704,0.3230437386305067,0.16311566993105747,25.0,25.0,25.0,25.0,25.0,25.0,24.0,12.347,0.0,0.0,1.0,1780982809780946859
1780982809890205113,-0.000013679016795110267,57.28783322461798,103.13209255986942,0.0016554855474983914,-0.003239480591449682,0.00007638137164636388,0.00005742792925902312,-0.0007482127248436673,0.0003691269517718752,0.002419830558998294,-0.000894571021637475,-0.0001302607795226527,2.419572202700413,5.930350675557729,2.483925765038134,0.32099635775718494,0.3163648491355529,0.08541932097934697,25.0,25.0,25.0,25.0,25.0,25.0,24.0,11.557,0.0,0.0,1.0,1780982809881317999
1780982809989083714,-0.000013737029453205134,57.28783752357929,103.13209145003788,0.0016480065794873885,-0.0032357088298581335,0.00007678747577161297,-0.00005438447685936154,0.0007713590411916093,-0.0003660010285012977,-0.002376992347289871,0.000903112108304018,0.00012969993852651206,2.418943488478119,5.942310391706199,3.0531114325045956,0.4472485810201526,0.3229739782437376,0.163112427909191,25.0,25.0,25.0,25.0,25.0,25.0,24.0,12.348,0.0,0.0,1.0,1780982809982633219
1780982810089807728,-0.000012746895990066993,57.28784045005318,103.1320948788768,0.0016682674189328732,-0.0032389035109749308,0.00007558978080664312,0.00006630197348555032,-0.0006228682227912112,0.00041778182196810154,0.002520869475560084,-0.000906482037031882,-0.00015010714693817272,2.424011060525989,5.9305006383887156,2.483541786021941,0.3208624492499501,0.31628365425300714,0.0853408889370713,25.0,25.0,25.0,25.0,25.0,25.0,24.0,11.561,0.0,0.0,1.0,1780982810082991333
1780982810189924603,-0.00001229169968517892,57.287849017787075,103.13209529879988,0.0016677938522166114,-0.003235163275024468,0.0000753739333993845,-0.000051990645863909875,0.0007324163859425657,-0.000387017606368847,-0.0023361611609545832,0.0009177803815387072,0.00013597726010819243,2.4256628055013416,5.942248305998532,3.053830284367314,0.4474291403636702,0.32302428741603423,0.16322273273847818,25.0,25.0,25.0,25.0,25.0,25.0,24.0,12.355,0.0,0.0,1.0,1780982810185203183
1780982810289575438,-0.000012623300522047962,57.28783660086182,103.13208908210048,0.001666748534682344,-0.0032344079463971684,0.00007608317357039047,0.00012358205629998034,-0.00017057776402755828,0.000629566375231866,0.0030044773707272898,-0.0009205576918862472,-0.00021312863968959647,2.4310778471875123,5.9304180413967735,2.481902971218791,0.3209033201197474,0.316336814680798,0.08530278452993144,25.0,25.0,25.0,25.0,25.0,25.0,24.0,11.566,0.0,0.0,1.0,1780982810283849320
1780982810389666653,-0.000010643131586223811,57.28785742544821,103.13209514308632,0.0016761119326463626,-0.0032304497220986407,0.00007435290547850843,-0.00005394967986474993,0.0006914617318361063,-0.000384326714338,-0.002372094717337389,0.0009015107003306994,0.00013953227286498047,2.41950419997437,5.94238181059414,3.054582460292799,0.4468125176474614,0.3228668074267683,0.1629710525160587,25.0,25.0,25.0,25.0,25.0,25.0,24.0,12.349,0.0,0.0,1.0,1780982810384904969
1780982810489575188,-0.000011059583402557946,57.287851421047776,103.13209696397328,0.001684352675127324,-0.00323654100925389,0.00007396192497423191,0.00003209310105897908,-0.00078805437181224,0.0003705955577483015,0.0022570965998523532,-0.0009404403356974764,-0.00012567455085063048,2.4240691209199947,5.930515719997408,2.4833973825176994,0.32091219107663627,0.3162829497785434,0.08535715934081368,25.0,25.0,25.0,25.0,25.0,25.0,24.0,11.561,0.0,0.0,1.0,1780982810484802703
1780982810589840417,-0.00001264969815781864,57.28784846298779,103.13209357099102,0.0016625533211207244,-0.0032336177355322972,0.00007572380824141431,-0.00006531010435435569,0.0006367853805501028,-0.0004180571053025515,-0.002498651448651647,0.0009141927134819928,0.00015134793691930925,2.4187119745567975,5.942165578900065,3.0531416608850876,0.44720116866422355,0.32303042479050836,0.1630957893479211,25.0,25.0,25.0,25.0,25.0,25.0,24.0,12.347,0.0,0.0,1.0,1780982810586116278
1780982810689807224,-0.000013058373925707015,57.28784197442443,103.13209304226334,0.0016642721306066,-0.0032364626546575515,0.00007589153653545411,0.000051254710481674565,-0.0007496303429606631,0.00037360968034411737,0.002315394597251927,-0.0009110737600360813,-0.00013481037403724187,2.415265360525523,5.930545770487088,2.4843230946398873,0.321176332292078,0.31630625207466273,0.085510191172333,25.0,25.0,25.0,25.0,25.0,25.0,24.0,11.553,0.0,0.0,1.0,1780982810686174308
1780982810789600806,-0.000013497509739746144,57.28783719615425,103.13209152296496,0.00165867670134335,-0.0032367984051094464,0.0000764130135620247,0.000052988727835953496,-0.0007221252097745563,0.0003794913745984657,0.002343626562949077,-0.0009053498076862532,-0.00013649293437871288,2.4122623543686488,5.930533364151201,2.484600073513329,0.3212754518951844,0.31632696587181647,0.08556547174868392,25.0,25.0,25.0,25.0,25.0,25.0,24.0,11.551,0.0,0.0,1.0,1780982810766678879
1780982810889447935,-0.000013998914780170786,57.28783253577125,103.13208982608673,0.001652226230415179,-0.0032368666101028976,0.00007702286813726917,0.0000538399392895733,-0.0007410583407171457,0.0003822796577285833,0.00236052027675121,-0.0009161596304976744,-0.00013712699795873524,2.4077448687829253,5.930594539894802,2.4850997978110527,0.3214132868138147,0.31631362811754116,0.08564444005570725,25.0,25.0,25.0,25.0,25.0,25.0,24.0,11.547,0.0,0.0,1.0,1780982810887679865
1780982810988878651,-0.00001456732525512622,57.28783160312803,103.13208706547294,0.0016381395425170322,-0.00323344535014207,0.00007802917744171705,-0.00006033041295347486,0.000672663400704223,-0.0004040037395622968,-0.0024430054496039247,0.0009112246010328904,0.00014515868032224507,2.4034316882681397,5.942219579939625,3.0516930399326263,0.446704284958983,0.32294123082615067,0.16281699147540632,25.0,25.0,25.0,25.0,25.0,25.0,24.0,12.33,0.0,0.0,1.0,1780982810988612623
1780982811089105569,-0.0000148073602315137,57.287830071495975,103.13208622067526,0.0016346189408263103,-0.0032331195024296734,0.0000783355702722553,-0.00006002251035100007,0.0006321707545869261,-0.0004019379085637461,-0.002424979297122316,0.0008906996566763345,0.00014482513269195317,2.4004949548972165,5.942046930002113,3.051250210857655,0.4466269472290176,0.32301155346035165,0.16277027568277408,25.0,25.0,25.0,25.0,25.0,25.0,24.0,12.326,0.0,0.0,1.0,1780982811069459884
1780982811189902826,-0.00001482151658617805,57.287820319686254,103.13208702660827,0.0016423493851836551,-0.0032389135337309635,0.00007810076426759569,0.00005502193965722456,-0.0007476702103989196,0.0003852581145855293,0.0023748292407987023,-0.0009212984806321965,-0.00013792862885819124,2.397687004338028,5.930588628410158,2.486093480471596,0.32173282683288196,0.3163522591189318,0.08582520356533466,25.0,25.0,25.0,25.0,25.0,25.0,24.0,11.538,0.0,0.0,1.0,1780982811170292943
1780982811289837773,-0.000015272519092288555,57.28781838035432,103.1320846739885,0.0016300144627546015,-0.0032363875500384287,0.00007899519730600905,-0.000058994727767956553,0.0006866628312416804,-0.00039892064888929433,-0.0024287026677875237,0.0009108022741893988,0.00014333331232046793,2.3936392502293073,5.942368972781989,3.050848702090766,0.44638147513396087,0.3228336384597205,0.16263641170675133,25.0,25.0,25.0,25.0,25.0,25.0,24.0,12.319,0.0,0.0,1.0,1780982811272162037
1780982811389662695,-0.000015217090139106732,57.28781439180647,103.13208563973672,0.0016368978924696646,-0.0032398223223783387,0.00007867496844175814,0.0000554719201581087,-0.0007113456915308936,0.0003862818383718495,0.0023706861161698948,-0.0009060994385519802,-0.00013818169286408107,2.3910279989268983,5.930288925809304,2.486499600236961,0.3219675750547893,0.3165180657687362,0.08595391472397224,25.0,25.0,25.0,25.0,25.0,25.0,24.0,11.532,0.0,0.0,1.0,1780982811371150467
1780982811489889451,-0.000015553193187325527,57.28781455802578,103.13208406105414,0.0016253175925646452,-0.003237411888775484,0.00007926921937014317,-0.00005593738798596225,0.00066947615366541,-0.00036049306051405664,-0.002378038029314167,0.0008471279099715151,0.000128166611915769,2.3870429218982765,5.942122208830815,3.0499445076207867,0.4462007766411894,0.32293512308135863,0.16252835021829493,25.0,25.0,25.0,25.0,25.0,25.0,24.0,12.311,0.0,0.0,1.0,1780982811472300951
1780982811589760381,-0.000015293870784599593,57.28780607173961,103.13208661399536,0.0016359625589240727,-0.003244947910744382,0.0000783970713910909,0.000054739035025217405,-0.0008387831563915666,0.0003453818198464429,0.0023757975764052805,-0.0008963360557750716,-0.00011972787379179984,2.384352882082293,5.930557171561609,2.4874636490844235,0.3221416108713447,0.31640000112939093,0.08606043848547054,25.0,25.0,25.0,25.0,25.0,25.0,24.0,11.527,0.0,0.0,1.0,1780982811573100334
1780982811689559933,-0.000015471528273788834,57.28780415856088,103.13208649436666,0.0016270601269082054,-0.0032454785731739146,0.00007845114400807546,-0.00005213992836710832,0.000849707531993806,-0.00028813324330567784,-0.002353082827876949,0.0008154362128344702,0.00009708682551815383,2.380411366002136,5.942332202112964,3.0493865444343453,0.44599196382044415,0.32282954739080016,0.16240841154038557,25.0,25.0,25.0,25.0,25.0,25.0,24.0,12.303,0.0,0.0,1.0,1780982811673919594
1780982811789142928,-0.000015176593260336636,57.2878006396613,103.13208889477336,0.0016368573381759547,-0.0032505647770017967,0.00007761395158274398,0.000051999254260775853,-0.0009338695476216704,0.00027780627548108593,0.0023438770330384325,-0.0008337498895047776,-0.00009105522595441553,2.378184946769892,5.930361020388676,2.487988374981305,0.3223342176926542,0.31649672064496126,0.08617140011545142,25.0,25.0,25.0,25.0,25.0,25.0,24.0,11.522,0.0,0.0,1.0,1780982811775252257
1780982811889974531,-0.000015348848673882858,57.28780579071511,103.13208861999657,0.0016263613735088185,-0.0032478297351350425,0.00007765550707802737,-0.000049941726410176126,0.0010100569542620223,-0.0002355054609788539,-0.0023494197923294765,0.00080476643714537,0.00007443977203768564,2.374955247826463,5.942334346625426,3.048777099457755,0.44583190662772526,0.32282217734243596,0.16231428377606327,25.0,25.0,25.0,25.0,25.0,25.0,24.0,12.297,0.0,0.0,1.0,1780982811875264965
1780982811989733230,-0.000015148060860217304,57.28780045785627,103.13208979956242,0.001634967631053611,-0.00325191295078961,0.00007731661154792871,0.00005017134982302675,-0.001063554645084076,0.00024073841381616476,0.0023370790370112445,-0.0008340415129888732,-0.00007514392971140191,2.373344016440625,5.930300286014968,2.488463279197145,0.32248335019011704,0.31653399083564493,0.08625734306143823,25.0,25.0,25.0,25.0,25.0,25.0,24.0,11.517,0.0,0.0,1.0,1780982811977097010
1780982812089541635,-0.00001530576533665438,57.28779653239573,103.13208914018564,0.0016253605251895637,-0.003252372470469691,0.00007762490022059455,-0.000049612765126354213,0.000917245203363444,-0.00023840987372703067,-0.00234119084930871,0.0007701388170120822,0.00007625685799133642,2.3706805259132304,5.94243131262624,3.0483890441760626,0.44569988976363534,0.3227774185623262,0.1622384165431481,25.0,25.0,25.0,25.0,25.0,25.0,24.0,12.292,0.0,0.0,1.0,1780982812076940417
1780982812189944068,-0.000015033263275277532,57.287782942378165,103.13209054339588,0.0016355235854007325,-0.003260203885436138,0.00007728845392159565,0.000050926897159031954,-0.0010959131950511486,0.00024660888370156293,0.002351148055427009,-0.0008554358180850716,-0.00007664688891730456,2.3694587864471153,5.930217511582191,2.48882442539258,0.32260104927500083,0.31656940567098757,0.08632539543004422,25.0,25.0,25.0,25.0,25.0,25.0,24.0,11.514,0.0,0.0,1.0,1780982812176361017
1780982812289134318,-0.000015178039197832616,57.28777739677012,103.1320899520041,0.0016261745424923358,-0.0032614575203647714,0.00007757508758718265,-0.00004967562976129279,0.0009154749517894,-0.0002368628791620251,-0.0023452474596361316,0.0007664956336368038,0.00007516589885098333,2.366962673367718,5.9425174974239265,3.048045523752207,0.4455861499462274,0.3227395302537951,0.16217274320796826,25.0,25.0,25.0,25.0,25.0,25.0,24.0,12.288,0.0,0.0,1.0,1780982812278599830
1780982812389046012,-0.000014829001034493503,57.287774496240885,103.13209144129246,0.0016356513603385664,-0.003264733413105457,0.00007713621158082532,0.0000520285878423254,-0.0009217708294347718,0.0002457639619089778,0.0023373428068062785,-0.000777845553186703,-0.00007723153973504604,2.366550812316093,5.930247955212489,2.4891795807314394,0.32268139201560303,0.3165519061560475,0.08637341293951403,25.0,25.0,25.0,25.0,25.0,25.0,24.0,11.512,0.0,0.0,1.0,1780982812377353867
1780982812489090380,-0.000014854706132096784,57.28778792247679,103.13209091920588,0.001624710790338188,-0.0032577727040458914,0.00007727613599133242,-0.00004853524822943633,0.001103128286780532,-0.0002377415285916236,-0.002360181052447678,0.0008503618338356177,0.00007428759344755418,2.3648753143937067,5.942543537738275,3.0478350391543905,0.445526141914239,0.3227266091269078,0.16213735922966435,25.0,25.0,25.0,25.0,25.0,25.0,24.0,12.286,0.0,0.0,1.0,1780982812478308627
1780982812589622718,-5.60647544014731e-6,57.28788255109853,103.1321241702766,0.00171728321055214,-0.0032539275701815823,0.000064338652466126,0.00010319719778961992,-0.0005609145569614331,0.00042997961657622024,0.003552032340068534,-0.0009532363800875042,-0.00023509233926549377,2.5120666018941855,5.932613605641837,2.471023693161319,0.31966866663748733,0.31654142177654765,0.08431281175388951,25.0,25.0,25.0,25.0,25.0,25.0,24.0,11.636,0.0,0.0,1.0,1780982812578063182
1780982812689317355,-8.989061792031337e-6,57.2878483327259,103.13210766668826,0.0016802267953022754,-0.0032496385570893534,0.00006905801796603196,-0.0003330372728039565,-0.0024032889259563628,-0.0015441177495016986,-0.005100155978483527,0.000799145403198533,0.0004932690489476951,2.2896000194481654,5.945335387081993,3.049081619214064,0.440399620517998,0.3209061555722471,0.15986345330244986,25.0,25.0,25.0,25.0,25.0,25.0,24.0,12.205,0.0,0.0,1.0,1780982812678607566
1780982812790031360,-6.0511646120179306e-6,57.28788777440827,103.13212206848426,0.0017084208024788234,-0.003250657749315359,0.00006295563493558382,0.00014287565072934418,-0.00012915600208482614,0.0006529934099065032,0.003708365492600542,-0.0009759583963966282,-0.0002704399841667968,2.654497530927936,5.933528712109111,2.4590322986264863,0.31464935761102875,0.3155945619435473,0.08158615381123552,25.0,25.0,25.0,25.0,25.0,25.0,24.0,11.759,0.0,0.0,1.0,1780982812779364231
1780982812889727548,-2.97046878076242e-6,57.28794623488126,103.13213563688038,0.0017170517518561837,-0.0032393907254014047,0.00005783816981578246,0.00006736189880708144,0.003961545035324979,0.0004210021738253496,-0.002464708342195863,0.0013989800400245151,-0.00012206175647799126,2.748592818206232,5.936160624757277,3.085649573450719,0.4548725797646557,0.32524890903168974,0.16809389610428055,25.0,25.0,25.0,25.0,25.0,25.0,24.0,12.719,0.0,0.0,1.0,1780982812879930054
1780982812990116820,-0.000015237759615874355,57.287797956146626,103.1320952739912,0.00159595673155245,-0.003269345369737528,0.00006864740136054737,-0.0000357812149361182,-0.0018291694777225404,-0.00008106359760622113,0.001950435816908892,-0.0008911795629950957,4.9195017194873185e-6,2.56354921566407,5.93047710839849,2.4667081348738114,0.31752274096856525,0.3159999592749052,0.0832055526233364,25.0,25.0,25.0,25.0,25.0,25.0,24.0,11.677,0.0,0.0,1.0,1780982812982390810
1780982813089559481,-0.00001806327339425163,57.28773594165835,103.13208185507747,0.0015174125823088469,-0.00328241722140829,0.0000728593227315912,-0.00004817084953831787,-0.0002689147194828049,-0.0002588069133897956,-0.0034385677815910484,0.00023121087772691465,0.00008380092669913174,2.22818633579737,5.944263474188197,3.0422052497783847,0.4393679630769121,0.321096646491333,0.15907135719625903,25.0,25.0,25.0,25.0,25.0,25.0,24.0,12.134,0.0,0.0,1.0,1780982813080834707
1780982813189483900,-0.000017046817690488855,57.28777519150286,103.1320895241854,0.0015661013222829647,-0.003274748402461103,0.00007015592448563476,0.000023256761545463865,-0.0007516416250603149,0.00017485326200726984,0.0031036297748170297,-0.000667322602429069,-0.00006747339137405672,2.6183723028042065,5.930501589121511,2.462127888707439,0.3155114718052415,0.31571943018438964,0.08212857311147996,25.0,25.0,25.0,25.0,25.0,25.0,24.0,11.724,0.0,0.0,1.0,1780982813182742291
1780982813289326510,-0.000018030875234625848,57.28771678758186,103.1320841600033,0.001499755327899243,-0.003292002427316775,0.00007287876733106081,-0.000013527736180467436,0.0011282308685853447,-0.0000899585368902611,-0.0027543599691840994,0.0007311036574055894,0.00004280481056186359,2.5399668945327116,5.942001364560357,3.064868436221929,0.4510665393026949,0.3233808551740057,0.16527431672174747,25.0,25.0,25.0,25.0,25.0,25.0,24.0,12.487,0.0,0.0,1.0,1780982813282550280
1780982813389707336,-0.00001823285174371993,57.287698581729046,103.13208398520392,0.0014999519619798378,-0.0033002008654619973,0.00007327370679787519,6.480024043532911e-6,-0.0014981671595312403,0.00006495945452630094,0.002398863692395636,-0.0008589180687332491,-0.000026330486908898407,2.513193889041612,5.9306816506750355,2.4746418838424846,0.318120220714759,0.3160697263643343,0.08377347227808818,25.0,25.0,25.0,25.0,25.0,25.0,24.0,11.636,0.0,0.0,1.0,1780982813383738290
1780982813489915311,-0.000018371194314011703,57.28770133587377,103.13208409705224,0.001489384395012484,-0.003298687167556978,0.00007357989764567403,-8.559269876436586e-6,0.0014045975489088275,-0.00005759095962723716,-0.002388941208780027,0.0008063496324699535,0.000029905689719963837,2.469655197021806,5.942232260626595,3.0587181086043875,0.4486258979945879,0.32298242107444053,0.16394041050945624,25.0,25.0,25.0,25.0,25.0,25.0,24.0,12.406,0.0,0.0,1.0,1780982813484327578
1780982813589797503,-0.000018388119912453228,57.28769452143592,103.13208510620044,0.0015022527253042257,-0.003303481920282438,0.000073507431747999,4.6780325496744705e-6,-0.0015352107468747016,0.00005352175059798028,0.00229388521837033,-0.0008600456655478839,-0.000021763705658887607,2.421438108925567,5.93014195234531,2.4823785370472753,0.3213287548940859,0.31669457819898295,0.08552261962824667,25.0,25.0,25.0,25.0,25.0,25.0,24.0,11.558,0.0,0.0,1.0,1780982813585223271
1780982813689930018,-0.000018463745121601877,57.28769948989707,103.13208581663064,0.001495100519701399,-0.003301684250613066,0.00007365450645934646,-6.729609714458196e-6,0.0014494283530015507,-0.00004302032812643532,-0.0022830145511878288,0.0008082268596328289,0.00002527845129354296,2.4072868211421725,5.942596483727302,3.053359357197609,0.4464288730007093,0.32256853772239963,0.16274659294722024,25.0,25.0,25.0,25.0,25.0,25.0,24.0,12.335,0.0,0.0,1.0,1780982813686331728
1780982813789111298,-0.00001838175242383189,57.28769778670384,103.13208768526916,0.0015111268594839133,-0.0033051243700724523,0.0000733377043894821,7.601558620757331e-6,-0.0013716318733930609,0.00007333670195202616,0.0023967210516005156,-0.0008096253449887102,-0.00002890678790273835,2.40549926653855,5.930108848345371,2.483976907518429,0.3218680940186223,0.31675980259992303,0.08581940518207233,25.0,25.0,25.0,25.0,25.0,25.0,24.0,11.544,0.0,0.0,1.0,1780982813788631772
1780982813889407417,-0.00001835160298578442,57.28770812737408,103.13208911744628,0.0015079364025452535,-0.003301739092770648,0.00007323048996881552,-6.417952952812876e-6,0.0014550659934061871,-0.00004098087682890918,-0.00226812171438196,0.0008087077548675174,0.000024630916059626686,2.4024361608944087,5.942558998817286,3.0527396939604508,0.4463139748815465,0.3225750336649995,0.16267269267030043,25.0,25.0,25.0,25.0,25.0,25.0,24.0,12.329,0.0,0.0,1.0,1780982813887654705
1780982813989856340,-0.000018676335680592693,57.2876891641091,103.13208923212844,0.0015131492671926524,-0.003311722424011058,0.00007356084342440759,0.00002645209262021283,-0.0005092541496561625,0.00018824966002180523,0.0030704644910511886,-0.000535324019215258,-0.00006666813203714732,2.4447067724810765,5.929910378075384,2.4800532054317843,0.32063453264103603,0.3166831928944703,0.08511797428201669,25.0,25.0,25.0,25.0,25.0,25.0,24.0,11.577,0.0,0.0,1.0,1780982813988044996
1780982814089138640,-0.000017999178770538498,57.28772390456747,103.1320946406726,0.0015331793689497791,-0.003301102071940462,0.00007220651526743184,-5.298148065983755e-6,0.0014466734397096742,-0.000033415884387744954,-0.0022351539270115666,0.0008015365364973987,0.00002335134518031123,2.445919889837345,5.942413042375733,3.0568102155720074,0.4477388712408489,0.32281849755005176,0.1634693270929975,25.0,25.0,25.0,25.0,25.0,25.0,24.0,12.379,0.0,0.0,1.0,1780982814089003542
1780982814189529130,-0.000017911212219706074,57.28772184984092,103.13209625614152,0.0015406850576080487,-0.003303760265516128,0.00007199102043960581,-6.450776712265217e-6,0.0013898075582987363,-0.00004048134645620633,-0.002274440673806256,0.0007828213634210626,0.000025638124749624013,2.443905304263743,5.942457904505426,3.05660379773596,0.447687758055077,0.3227938106303951,0.16343733089870308,25.0,25.0,25.0,25.0,25.0,25.0,24.0,12.377,0.0,0.0,1.0,1780982814169901345
1780982814289501403,-0.00001782100409543918,57.28771075554253,103.13209819364718,0.0015580590292074124,-0.0033113310783095154,0.00007170754549039277,7.656171845877659e-6,-0.0014893164360028615,0.00007333606689027535,0.002419897699227148,-0.0008632385904248526,-0.000028966854294060623,2.442190909260054,5.930193232381575,2.4806788188322693,0.3206119414345405,0.31655932889132593,0.08512900932437095,25.0,25.0,25.0,25.0,25.0,25.0,24.0,11.575,0.0,0.0,1.0,1780982814269821766
1780982814389175317,-0.00001780045740825516,57.287718531628286,103.13209948829292,0.0015547452063913838,-0.0033088891180793265,0.00007164293616965744,-6.6344157804287795e-6,0.001545885758856509,-0.00004371081916765179,-0.002286241718393109,0.0008533012593220882,0.000025251355802916392,2.439581961607706,5.942595873462813,3.0562079578189416,0.4475743082986496,0.3227091295037886,0.16336713496197044,25.0,25.0,25.0,25.0,25.0,25.0,24.0,12.372,0.0,0.0,1.0,1780982814370602059
1780982814490044721,-0.000017726152406752182,57.28772337566857,103.1321010967012,0.001570142089001121,-0.00330921443930702,0.00007132214650632832,7.459098142171878e-6,-0.0013456387885938791,0.00006982270046523322,0.002388602103065464,-0.0007967803256301124,-0.00002910633928359407,2.438689450698719,5.930139795062226,2.481049068679525,0.3206974486647711,0.3166057247546765,0.0851834416256087,25.0,25.0,25.0,25.0,25.0,25.0,24.0,11.572,0.0,0.0,1.0,1780982814471288776
1780982814589496542,-0.000017709832480261896,57.28774086241906,103.13210219490688,0.0015659034777999606,-0.0033023686617456665,0.00007122400598223071,-6.543142497071875e-6,0.0015612859611645591,-0.00004381183278084744,-0.002276896734658561,0.0008597616744121083,0.00002497512875164393,2.4365059731817564,5.9424987201682615,3.0557499486932818,0.4475121884257457,0.3227415082812175,0.16332418987405137,25.0,25.0,25.0,25.0,25.0,25.0,24.0,12.368,0.0,0.0,1.0,1780982814571879340
1780982814689565687,-0.00001763219123919747,57.28774632692742,103.13210372991657,0.001580275706538466,-0.003302324101898112,0.00007089429250610228,7.500762793856858e-6,-0.0013269188831061371,0.0000682155221685462,0.0023429926777106817,-0.0007856956218427464,-0.00002925382371656502,2.4358147551714224,5.9303232319685515,2.4815668419812886,0.32073968214420684,0.3165255764493988,0.0852175001080329,25.0,25.0,25.0,25.0,25.0,25.0,24.0,11.57,0.0,0.0,1.0,1780982814673017037
1780982814789078596,-0.000017611301820819766,57.28776346345071,103.13210477236548,0.0015750967178181138,-0.0032955465406533956,0.00007078867692817828,-6.57112931766689e-6,0.001523154660222725,-0.00004308523019751905,-0.002231332388484967,0.0008410805351316374,0.00002519914050841394,2.4338316697261786,5.942225658183105,3.0551754245579756,0.4474907868611987,0.32287037851111416,0.16329939106592228,25.0,25.0,25.0,25.0,25.0,25.0,24.0,12.365,0.0,0.0,1.0,1780982814774454487
1780982814889710518,-0.000017496927422778334,57.28776287306959,103.1321065218782,0.001590962098985757,-0.003298380474234948,0.00007040105278812285,8.104574301635587e-6,-0.0013880028974388467,0.00007109554585872799,0.00234148344202756,-0.0008151734293063838,-0.000030423671336177777,2.4386744854387095,5.930461807253042,2.4814059348685884,0.320628701636228,0.3164461884031835,0.08515825233835096,25.0,25.0,25.0,25.0,25.0,25.0,24.0,11.573,0.0,0.0,1.0,1780982814875147073
1780982814989275314,-0.000017423128903989448,57.287772299568914,103.13210789863074,0.001588763579239209,-0.0032953610358122127,0.00007020842195342897,-6.134226113627167e-6,0.0014532295903826578,-0.00004006849309287289,-0.0021979460349884567,0.0008073176856897169,0.000024618754119002443,2.4398351435022,5.942191622558726,3.055785859272891,0.4476719813853613,0.3229066089260974,0.16340443142373687,25.0,25.0,25.0,25.0,25.0,25.0,24.0,12.372,0.0,0.0,1.0,1780982814974616803
1780982815089783254,-0.000017294731437264683,57.28776961363408,103.1321096525331,0.0016049558157354476,-0.0032991287395250537,0.00006979827010988514,8.044183552221983e-6,-0.0013884448372931209,0.0000692483998060762,0.0023229865354151683,-0.0008135847674879747,-0.000030374261420456067,2.442020854959473,5.930521731246993,2.481111959028448,0.32051863077639303,0.3164055995090947,0.08509639966893384,25.0,25.0,25.0,25.0,25.0,25.0,24.0,11.576,0.0,0.0,1.0,1780982815075072000
1780982815189090024,-0.000017230379653260814,57.28777946748409,103.13211085980072,0.0016016362762917213,-0.003295735575866306,0.00006962567161493333,-6.240991714243775e-6,0.0014392288495168662,-0.00004115222341173704,-0.0021950083119230512,0.0008025987833887099,0.00002502637633676617,2.442649079305372,5.941902533816915,3.0558153557700933,0.447787045046548,0.3230587320582656,0.16346496976730832,25.0,25.0,25.0,25.0,25.0,25.0,24.0,12.375,0.0,0.0,1.0,1780982815175395161
1780982815289627633,-0.0000169345428998321,57.28778346630264,103.13211299500573,0.0016159661535827007,-0.0032968888482116307,0.00006914174810249454,0.0000164362388860072,-0.0012431405042354286,0.00009581755870055676,0.0023054510260567492,-0.0007740630701618199,-0.000034138236759114623,2.4445673905141985,5.930869692993084,2.48112653525986,0.32041571916362593,0.3162598455020212,0.0850423973560213,25.0,25.0,25.0,25.0,25.0,25.0,24.0,11.578,0.0,0.0,1.0,1780982815276062532
1780982815389307162,-0.000016666817470115376,57.28780002476914,103.13211466305664,0.001610590329054444,-0.003290941337993754,0.00006883684121581871,-0.00001673531881367143,0.0014263125880505992,-0.0000781016813405827,-0.0022368809333861684,0.0008314806854572938,0.00003035534321469639,2.4450509455364275,5.941749635744296,3.0559991243866413,0.4478634478343796,0.32307066833894404,0.16350771208138626,25.0,25.0,25.0,25.0,25.0,25.0,24.0,12.377,0.0,0.0,1.0,1780982815378740718
1780982815489285017,-0.000016217408063048413,57.28780432540676,103.13211708025756,0.001623798658487648,-0.0032922010126244447,0.00006817877159855268,0.000030236215662013218,-0.0012523331259330485,0.0001367844743377898,0.0023291690322038844,-0.0008164169032315368,-0.000045355077312389945,2.446732380301511,5.930774528614153,2.4807620089263267,0.32036264979881857,0.31636441032025275,0.08500983499951344,25.0,25.0,25.0,25.0,25.0,25.0,24.0,11.58,0.0,0.0,1.0,1780982815477594616
1780982815589174486,-0.000015996510362041027,57.28781518803278,103.13211851111532,0.0016190274463529814,-0.0032885452175146776,0.00006786987310514352,-0.000030038761458015307,0.0013505461315170934,-0.00011861018410821232,-0.0022495788187374393,0.0008360670256463218,0.000041221177589924405,2.447013134762253,5.941944723132667,3.0564252461094363,0.447904849616272,0.3229217012255511,0.16353472129868218,25.0,25.0,25.0,25.0,25.0,25.0,24.0,12.38,0.0,0.0,1.0,1780982815584325882
1780982815689880092,-0.0000154597172318649,57.287813058755454,103.13212121467956,0.0016339196153559168,-0.003292912644821063,0.00006717912907174673,0.00004079179459932009,-0.0012734979269501618,0.00016743215464017978,0.00234836499487681,-0.0008544526217833142,-0.00005441586117885029,2.448491749616007,5.930783012852752,2.480557786898692,0.32030546528766435,0.3164008679537948,0.08497785322455667,25.0,25.0,25.0,25.0,25.0,25.0,24.0,11.582,0.0,0.0,1.0,1780982815678330665
1780982815789372022,-0.00001512537294956324,57.287823555488934,103.13212300694332,0.0016292583822174684,-0.0032897374914992905,0.00006686642983174262,-0.0000324914729979918,0.0013295280116258643,-0.00012146024437100464,-0.0022339985333191615,0.0008300651776102509,0.00004731677226161253,2.448533795990475,5.941588108297008,3.0562593324535428,0.4479934798593835,0.32308492279807116,0.16357755500611232,25.0,25.0,25.0,25.0,25.0,25.0,24.0,12.381,0.0,0.0,1.0,1780982815779676445
1780982815889657289,-0.000014488299432774946,57.28782696226572,103.13212588074128,0.0016422916850226171,-0.0032918050727768723,0.0000661142699956385,0.000042438698422690934,-0.001175221056530444,0.0001650495147624203,0.00229713900662259,-0.0008091936931452308,-0.000059895793503500925,2.449842566922506,5.931132317519501,2.4807483697199264,0.32022057604796567,0.3162292468374888,0.08493733472376684,25.0,25.0,25.0,25.0,25.0,25.0,24.0,11.583,0.0,0.0,1.0,1780982815879723665
1780982815989742089,-0.000014196715133489164,57.28784064876337,103.1321274218282,0.0016361374865070044,-0.0032869744531010205,0.00006584177682717146,-0.00003449986776709446,0.001351981730673453,-0.0001240934959670272,-0.0022332570009380346,0.000843021951928678,0.00005249016530966182,2.449620837020557,5.941703215521387,3.056458778603682,0.44802757908779056,0.3230300059431109,0.16359708293241343,25.0,25.0,25.0,25.0,25.0,25.0,24.0,12.382,0.0,0.0,1.0,1780982815980959007
1780982816089815550,-0.000013597064806516538,57.28783965399949,103.13213013416808,0.0016500611983505122,-0.003290841735765613,0.00006511327604007811,0.00004356172350325573,-0.001261057461346283,0.00016439502380763502,0.0023090088820820177,-0.0008471228742001327,-0.00006406299074478608,2.4506797166742973,5.930956254746627,2.4805219034903985,0.32020079424057374,0.3163128646777468,0.08492474497028765,25.0,25.0,25.0,25.0,25.0,25.0,24.0,11.584,0.0,0.0,1.0,1780982816081043112
1780982816189926726,-0.00001334678328645899,57.287847891180206,103.13213153099194,0.0016451047885527536,-0.003288285498886285,0.0000648786798183497,-0.00003574166014573445,0.0013171393674163015,-0.0001257647021572068,-0.0022215235900955735,0.0008295307048153051,0.000055442021189126295,2.45017481698606,5.941710580965209,3.0565120035372755,0.448051879802262,0.323024493929843,0.16360961118787695,25.0,25.0,25.0,25.0,25.0,25.0,24.0,12.383,0.0,0.0,1.0,1780982816182158853
1780982816289704151,-0.000012823236380264906,57.28784524514442,103.13213369143446,0.0016579101846153378,-0.0032922656198747296,0.00006421516977842088,0.00004240839619963502,-0.0012415005210883825,0.0001521252570938066,0.002275325030336157,-0.000824354867229591,-0.00006262752845978896,2.451061823338473,5.931136518686523,2.480650018890778,0.32017010315044203,0.3162256857464759,0.0849107889145297,25.0,25.0,25.0,25.0,25.0,25.0,24.0,11.584,0.0,0.0,1.0,1780982816281939436
1780982816389829965,-0.000012722008390569712,57.28785488667576,103.13213397247029,0.001650090911323161,-0.0032877946171437347,0.00006422203473695276,-0.00003722515201930993,0.0013146214995851456,-0.0001351075854130899,-0.002241788872294317,0.0008394959912924955,0.00005811343526673036,2.4506157461200484,5.941548305985454,3.056419002053767,0.4480778354648533,0.32310409167018095,0.16362225200977795,25.0,25.0,25.0,25.0,25.0,25.0,24.0,12.383,0.0,0.0,1.0,1780982816383145893
1780982816489389175,-0.000012326747053478267,57.287852097710946,103.13213527164368,0.0016613815220078518,-0.0032908502545801912,0.00006378302004816514,0.000041712574457878134,-0.0012746240209379994,0.00014977654281714506,0.0022854970341468976,-0.0008372409611480602,-0.00006210828485185096,2.4513123468908717,5.931005094784674,2.4804967991654094,0.32017969947485736,0.31628600584225464,0.08491276448140346,25.0,25.0,25.0,25.0,25.0,25.0,24.0,11.584,0.0,0.0,1.0,1780982816483447840
1780982816589826823,-0.000012280408805683017,57.287858114165914,103.13213535544207,0.001654360075908904,-0.0032877757781247714,0.00006386536539003892,-0.00003765531024230663,0.0012889303735530778,-0.00013700714362914314,-0.00224065041919876,0.0008306724826001808,0.00005900824449694474,2.4504000638202417,5.941673118150009,3.0565198144663848,0.4480547520610827,0.3230452281586802,0.16361239786391046,25.0,25.0,25.0,25.0,25.0,25.0,24.0,12.383,0.0,0.0,1.0,1780982816585099337
1780982816689317310,-0.000010405423746257548,57.28785450835376,103.1321340551304,0.00167827444696616,-0.003286519206289981,0.0000636458493059621,0.000052747739973628875,-0.0012405509117121474,0.00012006692146710412,0.002379078710095132,-0.0007749901626559754,-0.00005794899167651101,2.45060135894149,5.930712099144786,2.4781959521443406,0.3209227682999054,0.31655520347858773,0.08516771828689418,25.0,25.0,25.0,25.0,25.0,25.0,24.0,11.582,0.0,0.0,1.0,1780982816684662114
1780982816789816482,-0.000010794144074464871,57.28785835556947,103.13213383403618,0.0016710813432287864,-0.0032849959866655216,0.00006366196195646996,-0.000053774009763010886,0.0013239720940405172,-0.00007594605403486795,-0.00230576613046433,0.0007473255772545696,0.000047444703324854176,2.4574194907271423,5.941559938996142,3.0572854477639493,0.4482277534413952,0.3231052005577853,0.1637218210235703,25.0,25.0,25.0,25.0,25.0,25.0,24.0,12.391,0.0,0.0,1.0,1780982816787087139
1780982816889801852,-0.000011552847450478018,57.28785248465954,103.13213542229492,0.0016726322039457711,-0.003290438464336566,0.00006370070424541085,0.00003296099630639313,-0.001307063469793987,0.00012614495063786608,0.0021799236952336465,-0.0008256520754388211,-0.00005323345874429863,2.45406685362727,5.93101130258656,2.4801392469327843,0.3201251759471502,0.3162758323440798,0.08487446399898949,25.0,25.0,25.0,25.0,25.0,25.0,24.0,11.586,0.0,0.0,1.0,1780982816885938341
1780982816989955560,-7.962953568806845e-6,57.28791667569133,103.13214415036046,0.0017008469257624842,-0.0032715796345552947,0.0000594238947427021,0.00005954426986976873,0.002418876276592155,0.0001923578829770897,-0.0017599417889963196,0.0010293414509658782,-0.0000235601675290783,2.5219767355790217,5.941171305443428,3.065577427456678,0.44947410660715514,0.32336409365358304,0.16461032837604073,25.0,25.0,25.0,25.0,25.0,25.0,24.0,12.466,0.0,0.0,1.0,1780982816987253519
1780982817089193288,-6.41054499608787e-6,57.28793907530238,103.13214654177222,0.0017127737104991726,-0.003263373894881106,0.00005827978155115099,-0.00004129913542884563,0.0012186711484721115,-0.00016491047124412648,-0.0025573661086058185,0.0008668471438971535,0.00008088627995086162,2.521923446735971,5.94184163358891,3.066168567665927,0.4494374199597365,0.32315301382258627,0.16459769471415048,25.0,25.0,25.0,25.0,25.0,25.0,24.0,12.467,0.0,0.0,1.0,1780982817069430685
1780982817189053764,-9.389817163114982e-6,57.2879037371705,103.13213289716708,0.0016821379542016396,-0.003263422157224149,0.00006263026622945183,-9.243316010663196e-7,0.0016547261206213098,-0.000023051448829344408,-0.002131374429765694,0.0009049959952408516,0.000029695177263860525,2.5196275825927694,5.94194343667737,3.066118569948556,0.4492741538023775,0.3231021962604074,0.16452617636117828,25.0,25.0,25.0,25.0,25.0,25.0,24.0,12.465,0.0,0.0,1.0,1780982817188784994
1780982817289071653,-8.364356878957233e-6,57.28791540954669,103.13213471045286,0.0016874388737663365,-0.003259179089911423,0.00006211466344932393,-0.000051440265017426294,0.0011411953931883016,-0.00020981595172223493,-0.002557149805472859,0.000865735436491459,0.00008343825804762976,2.5232151473703737,5.942144227438989,3.0667172225988684,0.44940012269201657,0.32303657985283707,0.1645941096732697,25.0,25.0,25.0,25.0,25.0,25.0,24.0,12.469,0.0,0.0,1.0,1780982817270534240
1780982817389323401,-8.965166929750399e-6,57.28790074148472,103.13213006641811,0.0016880859105540896,-0.003260439481672698,0.00006340996563013242,0.00003925895765491085,-0.001294902050502872,0.00011789859260414309,0.002394407029558895,-0.0008187093858002057,-0.00005590981647263103,2.5248350376569544,5.93069750221237,2.4702773891600813,0.31883097668430627,0.31621733596908497,0.08392466273842006,25.0,25.0,25.0,25.0,25.0,25.0,24.0,11.645,0.0,0.0,1.0,1780982817369687146
1780982817489796554,-0.000010116096309050144,57.2878877310729,103.13212352014712,0.0016690843805410762,-0.0032579260638258938,0.0000654947129182393,-0.000057431705268206736,0.0010469687653412464,-0.00023058885057521285,-0.002590903601354907,0.0008429324890251711,0.00008946585083057285,2.5250137477630012,5.942393573032942,3.067305355997939,0.44937397867838186,0.32291292426552853,0.1645976161230193,25.0,25.0,25.0,25.0,25.0,25.0,24.0,12.472,0.0,0.0,1.0,1780982817470118960
1780982817589068191,-4.294827698019718e-6,57.28793192497375,103.1321349940668,0.0017420404199823337,-0.003248771206825305,0.000058840779123281454,0.00008855168785833632,-0.0007798235569373409,0.0003032143073535702,0.003694954891750993,-0.0008900867167985089,-0.0001950981497489351,2.5759528047830824,5.932853526021632,2.464460572291784,0.3177722742346943,0.3162967997000094,0.08320932759557485,25.0,25.0,25.0,25.0,25.0,25.0,24.0,11.691,0.0,0.0,1.0,1780982817570464230
1780982817689901416,-2.094011501675887e-6,57.28795830996411,103.13214174713671,0.0017569738646270184,-0.0032425186263974636,0.000056415218208504726,-0.00005209200366460729,0.001151799750378176,-0.0002504955626800804,-0.002932007929773161,0.0009844883279935626,0.00013098426661290632,2.5717358087308035,5.939531570379367,3.0718866600124257,0.45039097520101706,0.32317498809261075,0.16526940567487858,25.0,25.0,25.0,25.0,25.0,25.0,24.0,12.522,0.0,0.0,1.0,1780982817670854629
1780982817789892235,-2.9810462484877978e-6,57.287934791664775,103.13213792743684,0.0017554374526772608,-0.003249166039275228,0.000057112705304465986,0.00006736248812848023,-0.0011843074223415128,0.00033263525677786304,0.0027951707727150543,-0.0010547710729947454,-0.00013714580010981288,2.5675939297851227,5.933157165295582,2.4656811375517855,0.3179870316038003,0.31618424166597925,0.08334254931080713,25.0,25.0,25.0,25.0,25.0,25.0,24.0,11.684,0.0,0.0,1.0,1780982817773077002
1780982817889106943,-4.630289267150434e-6,57.28792246289721,103.1321302312973,0.0017247480296692398,-0.003245231678134529,0.00005955920064711795,-0.00010728530428066748,0.00075804703714143,-0.0005223684249934153,-0.0031734257202391597,0.0010674183451848506,0.00018300301065068056,2.562687104317036,5.939745503645927,3.0710802813548463,0.4501301175766139,0.3230264381807574,0.16511470412338175,25.0,25.0,25.0,25.0,25.0,25.0,24.0,12.512,0.0,0.0,1.0,1780982817872646165
1780982817989745320,-5.774174221489796e-6,57.287903777889014,103.13212447896856,0.0017184035330177472,-0.0032476898225648272,0.00006105601671236276,0.00007906572463868474,-0.0010361812430144063,0.0003812898424922085,0.002805713905833876,-0.0010304030959403466,-0.0001418005148215339,2.559278027674237,5.932971541368034,2.466453551720937,0.31822295135470097,0.3162975323100568,0.08348311794396135,25.0,25.0,25.0,25.0,25.0,25.0,24.0,11.677,0.0,0.0,1.0,1780982817973145760
1780982818089421373,-7.676326373300777e-6,57.28789121966648,103.13211570967808,0.00168824524717537,-0.0032431063202932927,0.00006362409098182457,-0.00009893781207025156,0.0006947006488973325,-0.0004994586533735179,-0.00303996609948171,0.0010163516351024738,0.00017551486575151105,2.558742075985422,5.940735162995056,3.0712043814294168,0.4500059648994536,0.322904706799742,0.1650467808515768,25.0,25.0,25.0,25.0,25.0,25.0,24.0,12.509,0.0,0.0,1.0,1780982818073794905
1780982818189048244,-7.761016713674165e-6,57.28787565969721,103.13211578613684,0.0016940810325827389,-0.0032508474087831188,0.00006338235687745569,0.00008723767408504274,-0.0009281095976873398,0.0004586760951282008,0.002889402649523016,-0.0010794227817585043,-0.00016546921776903635,2.5583305174740514,5.931672584158903,2.465775976887434,0.31828159391726346,0.3164857522294032,0.08350725968086486,25.0,25.0,25.0,25.0,25.0,25.0,24.0,11.674,0.0,0.0,1.0,1780982818174402127
1780982818289332697,-8.40715256541723e-6,57.28786735952334,103.13211261327412,0.0016774806321671084,-0.003250340796354618,0.00006437048414685951,-0.00009201536754409191,0.000695718612727526,-0.0004854265751959722,-0.0029714853277984597,0.0010078105317802358,0.00017191090678098255,2.556530421961574,5.941287231770846,3.0713154549620474,0.449921431135561,0.3227848370645615,0.16500242036877455,25.0,25.0,25.0,25.0,25.0,25.0,24.0,12.507,0.0,0.0,1.0,1780982818274645007
1780982818389585705,-8.202233587055176e-6,57.287859659725534,103.13211369178184,0.001685525210469958,-0.003255681683703233,0.00006380883085554796,0.00008912347944216229,-0.0007238119448825516,0.00047094684277782065,0.002891521227795614,-0.0010066093737222577,-0.0001702395665253417,2.5566255761885075,5.931411671991086,2.4658188799077716,0.3183411429239625,0.31651058845146035,0.08353923994715774,25.0,25.0,25.0,25.0,25.0,25.0,24.0,11.672,0.0,0.0,1.0,1780982818376704706
1780982818489943547,-9.2979916031046e-6,57.28786584184922,103.13210844088368,0.001662372708635059,-0.003246695961620308,0.0000652953725411871,-0.00007217346657352861,0.0010847345686435528,-0.0004131394142766834,-0.0028324329353355466,0.0011015334464286066,0.00014804687187317978,2.555076916465109,5.9411954722089515,3.071087477011716,0.44986785838570104,0.32283523954478344,0.16497411212539806,25.0,25.0,25.0,25.0,25.0,25.0,24.0,12.505,0.0,0.0,1.0,1780982818476349311
1780982818589261498,-8.356913268191958e-6,57.28787835792097,103.13211219398124,0.0016752403318860646,-0.0032460454213409165,0.00006384057132678638,0.00008932841345559936,-0.0007697793895487909,0.0004739547730567578,0.0029157069848993787,-0.0010289535237003782,-0.00016954338323974024,2.555576084784023,5.931176734491093,2.4657109060770273,0.31839468320985764,0.316624484466887,0.08356590501390555,25.0,25.0,25.0,25.0,25.0,25.0,24.0,11.671,0.0,0.0,1.0,1780982818577585386
1780982818689033650,-8.880798864233602e-6,57.287882141080615,103.13210937894598,0.0016598191969719866,-0.0032406695132318063,0.00006469053990601187,-0.00009061391064994176,0.0007906199291902324,-0.0004882920030623007,-0.002962458553895608,0.0010535738801835126,0.00017160131221062778,2.5537276017645283,5.941673492675076,3.0712899661709656,0.44981672440292464,0.32268661610130556,0.16494675930189875,25.0,25.0,25.0,25.0,25.0,25.0,24.0,12.504,0.0,0.0,1.0,1780982818678500695
1780982818789259004,-8.714692256729899e-6,57.28787753393362,103.1321104023903,0.0016687670495827676,-0.0032446165398613545,0.00006419400806139868,0.0000859874296047768,-0.0008037822690132399,0.00047088486548314904,0.0028889155208923737,-0.0010431106954542628,-0.0001678978275958886,2.553191202075344,5.930838405898115,2.4657869183678,0.31846415858141136,0.31666774322835234,0.0836058163219112,25.0,25.0,25.0,25.0,25.0,25.0,24.0,11.669,0.0,0.0,1.0,1780982818778394399
1780982818889546007,-1.925015445568253e-6,57.28797839784667,103.1321375668852,0.001724330175187311,-0.0032316060358747994,0.000053570284051166835,0.0000835140045841604,0.003345160173750496,0.0005392588125722579,-0.0018221901087335745,0.0009884778886487837,-0.00014711591248804995,2.680864115767584,5.941487610304696,3.0895908918429513,0.45183505602600416,0.32246738639150985,0.1665459486646945,25.0,25.0,25.0,25.0,25.0,25.0,24.0,12.653,0.0,0.0,1.0,1780982818878898215
1780982818989855671,2.6739152665945744e-6,57.28801420094655,103.13214926150546,0.001802161147939792,-0.0032308506815930424,0.000045641692430725515,0.00004209623118773702,-0.002010866028992523,-0.00014748892960710007,0.00329486261822536,-0.0008469693703791594,-0.00004708586718490957,2.679073934996209,5.931033340335835,2.4471445237434004,0.3166168868417438,0.31699334186225414,0.08207535449576003,25.0,25.0,25.0,25.0,25.0,25.0,24.0,11.773,0.0,0.0,1.0,1780982818980147770
1780982819089478679,2.106412990035086e-6,57.28800917165031,103.13214341621112,0.0017907231576173577,-0.003226346421484015,0.00004580953242788535,-0.00007015608280429738,0.0016653261109859897,-0.00004193792569178459,-0.0031600123749038847,0.0008618261153874269,0.00005094335472720249,2.6671507557654577,5.941686279484819,3.0882535783081835,0.4514570891587256,0.3223678264780296,0.16631919196039302,25.0,25.0,25.0,25.0,25.0,25.0,24.0,12.637,0.0,0.0,1.0,1780982819080941958
1780982819189382882,6.745921257475104e-7,57.28798532871172,103.13213750179858,0.0017886966465734365,-0.003232115525819647,0.00004713373096921366,0.00005985316769066359,-0.0017835148858698332,0.00003398480581884972,0.0029902352813872004,-0.0009208064525101564,-0.000039029720384979386,2.654503248355554,5.931115961607954,2.4505184842249097,0.3171225525778959,0.3169922483562295,0.08242525194045267,25.0,25.0,25.0,25.0,25.0,25.0,24.0,11.753,0.0,0.0,1.0,1780982819181692277
1780982819289263045,-1.479222722846439e-6,57.287977333913375,103.13213196006345,0.0017564150755122908,-0.0032302296846236237,0.000049200300778862384,-0.0000979803609781805,0.0014424630193942396,-0.00015922236715667866,-0.003347114057627086,0.000887199832156309,0.00007953141464039623,2.6423722940233545,5.941500280694342,3.085067117081116,0.4508568564026922,0.322337804584502,0.1659348178161738,25.0,25.0,25.0,25.0,25.0,25.0,24.0,12.608,0.0,0.0,1.0,1780982819281657492
1780982819389311922,-3.18388852182151e-6,57.287952797632386,103.13212570241797,0.0017469691657461747,-0.003234967953028129,0.0000513303909523282,0.0000633147056479479,-0.0016673917320440023,0.0000833529730372256,0.002927093628660545,-0.0009204753356959456,-0.00004932235817530863,2.632355992826246,5.93129027019809,2.4533380531449325,0.3176450511345897,0.3169807749576701,0.0827620902597001,25.0,25.0,25.0,25.0,25.0,25.0,24.0,11.734,0.0,0.0,1.0,1780982819382782690
1780982819489040533,-5.478084419578177e-6,57.28794241488361,103.13211836892611,0.001712310974085919,-0.003231325782747886,0.000054029375577072915,-0.00010346873583342882,0.0012599837170599766,-0.0002601898639952457,-0.003291243726019126,0.0009377421441195498,0.00010748230258391386,2.624176528341519,5.941259359866586,3.0827237602393516,0.4504527254967115,0.3223757335937542,0.16566746195022672,25.0,25.0,25.0,25.0,25.0,25.0,24.0,12.587,0.0,0.0,1.0,1780982819482528854
1780982819589118929,-6.725949346139471e-6,57.28792302500514,103.13211349229246,0.001709323743033758,-0.003234980336072766,0.00005574399399993184,0.0000725619765018367,-0.0014574385198226395,0.0001765507281029813,0.002966546098451622,-0.0009450965001582704,-0.00007878455031259097,2.6185561796209615,5.931547279600239,2.4551461740399465,0.3179414046162224,0.316916970656664,0.08296043333315614,25.0,25.0,25.0,25.0,25.0,25.0,24.0,11.723,0.0,0.0,1.0,1780982819584317045
1780982819689900912,-8.362312501384023e-6,57.28791722249339,103.13210784133676,0.0016848737421148012,-0.003230797876780041,0.00005791313010820287,-0.00009724877088128052,0.0011820957162566397,-0.000286333435968095,-0.00318407045476412,0.0009544727570913116,0.00012158669191875848,2.6122175206768334,5.940996659307485,3.081133320171182,0.4501730868213169,0.3224583002030187,0.165487682376859,25.0,25.0,25.0,25.0,25.0,25.0,24.0,12.572,0.0,0.0,1.0,1780982819685211986
1780982819789735723,-8.987822810671177e-6,57.287902898335304,103.13210516175776,0.0016882885141461365,-0.003234600760634409,0.00005877168596001659,0.0000762422114946064,-0.0013064413236181889,0.0002300297144657255,0.0030121853434381335,-0.0009544744426639844,-0.00009930403122018664,2.6076028613714963,5.931799441156154,2.456587746021119,0.31821665981615155,0.31683878544587757,0.08313223181756739,25.0,25.0,25.0,25.0,25.0,25.0,24.0,11.714,0.0,0.0,1.0,1780982819786889510
1780982819889156029,-0.00001010587023298082,57.287900115396255,103.1321008083036,0.0016663594158289874,-0.0032303861148725685,0.00006022750202886193,-0.00008916086686900278,0.001102989301228251,-0.0003097707697814676,-0.0032192385909154643,0.0009627514791791396,0.00012055729452261878,2.6011725059199526,5.940799534494255,3.0797610619565643,0.4498619862491139,0.32250524260583363,0.16530144081004727,25.0,25.0,25.0,25.0,25.0,25.0,24.0,12.559,0.0,0.0,1.0,1780982819885326003
1780982819989603049,-0.000010351801753613273,57.28788650198751,103.13209960375448,0.0016731179183610717,-0.003235514947186946,0.00006052529125372216,0.00007705486692198465,-0.0012131768715790722,0.0002760349824207266,0.0031186249824824426,-0.0009775026874596908,-0.00010767965189516274,2.602968235494991,5.932219698497762,2.457413826290175,0.3183473653720128,0.316665684060432,0.0832101659798709,25.0,25.0,25.0,25.0,25.0,25.0,24.0,11.711,0.0,0.0,1.0,1780982819984868918
1780982820089856806,-0.000011068108540507983,57.287877415796785,103.13209699581375,0.001657654780740406,-0.0032359147980658884,0.00006153423967314531,-0.00008240177826716778,0.0009420270580645792,-0.0003086223341145915,-0.003177061046970271,0.0009015909102435168,0.0001190576223406457,2.599018227807573,5.940447354377948,3.0792847144632947,0.4497964940315589,0.32266454539977324,0.16526410371165312,25.0,25.0,25.0,25.0,25.0,25.0,24.0,12.556,0.0,0.0,1.0,1780982820087284602
1780982820189700845,-0.00001104607249661746,57.28786040189035,103.13209713953589,0.001668933590772282,-0.0032440305713510986,0.00006155082284765971,0.00007286034236396453,-0.0011075417583982922,0.00028749065722058806,0.00312830783431839,-0.0009542404059923008,-0.0001100931428842028,2.5951172951907293,5.9324129541424435,2.45838187140189,0.3185762696308445,0.31658667968588466,0.08334385330323005,25.0,25.0,25.0,25.0,25.0,25.0,24.0,11.704,0.0,0.0,1.0,1780982820187045710
1780982820289644558,-0.000011635753762856894,57.28786403382877,103.13209477799975,0.0016526933559607808,-0.003239147589370677,0.00006245019814357414,-0.00007490348526546203,0.0010749406471398657,-0.0003087238648119311,-0.003168657377651128,0.0009680057666108916,0.00011799575278737882,2.5894388874742704,5.940353789374412,3.078232606325313,0.4495124992234434,0.32268909370047993,0.16509922127964805,25.0,25.0,25.0,25.0,25.0,25.0,24.0,12.545,0.0,0.0,1.0,1780982820286847249
1780982820388987817,-0.000011612323842257943,57.287864290328066,103.13209489743764,0.0016625593658876863,-0.003239843929080014,0.00006235832151464337,0.0000655895666978731,-0.0009671714543435588,0.0002821648507774175,0.003081405990603284,-0.0008960517523131498,-0.00010928849669243204,2.585698368351555,5.932144697464687,2.4591536252203237,0.31887450068891204,0.31663854975978667,0.08351182849548536,25.0,25.0,25.0,25.0,25.0,25.0,24.0,11.696,0.0,0.0,1.0,1780982820388543124
1780982820489014057,-0.000012066297041018087,57.2878745583242,103.1320931110452,0.0016486599809526971,-0.003232764491325065,0.00006304869606601728,-0.00006808520016140866,0.0010541470286594033,-0.0002950467176226744,-0.003085155837163405,0.0009483809286217408,0.0001141722010631628,2.579702420194295,5.940581532492432,3.077360238659024,0.4492105830435949,0.3227014552763707,0.1649287544558517,25.0,25.0,25.0,25.0,25.0,25.0,24.0,12.534,0.0,0.0,1.0,1780982820488626416
1780982820589609216,-0.00001216388771739897,57.287878800909006,103.1320928199827,0.0016484549500965049,-0.003230619861445833,0.00006318167880210604,-0.00006668049937024029,0.0010077062678727087,-0.00029306804396826594,-0.0030609324243606652,0.000927039145183564,0.00011379081002427288,2.575497011586145,5.940689857872448,3.0770087307866074,0.4490771667170843,0.3226759239687812,0.16485367055625097,25.0,25.0,25.0,25.0,25.0,25.0,24.0,12.53,0.0,0.0,1.0,1780982820568939080
1780982820689740644,-0.000011965773937137404,57.28787491333099,103.13209388477046,0.0016619451988547482,-0.0032342036037244244,0.00006283105419213974,0.00006447877621784091,-0.0009787742099508635,0.0002900161089742552,0.0030561474182490113,-0.000912277524126463,-0.00011163810132840276,2.5712635429016375,5.931930601857646,2.460479943788892,0.31932480648083045,0.3166711497323425,0.08376671921825019,25.0,25.0,25.0,25.0,25.0,25.0,24.0,11.683,0.0,0.0,1.0,1780982820671101017
1780982820789057029,-0.000012282518818153371,57.28787818754969,103.13209264376177,0.0016505423237995773,-0.0032307526810594713,0.00006338184478627095,-0.0000649422437843197,0.000951928274256167,-0.0002887985124386902,-0.0030097949759803583,0.0008981611561385333,0.00011273352346762507,2.558488612295566,5.940767056256041,3.075363720939766,0.4485043080713456,0.3226189512094175,0.16453813481930032,25.0,25.0,25.0,25.0,25.0,25.0,24.0,12.51,0.0,0.0,1.0,1780982820770477530
1780982820889846916,-0.000011902884496408464,57.28787896731507,103.13209440654738,0.0016649578945192836,-0.00323304925991608,0.00006277123149123014,0.00006928698550917896,-0.0008542848574924832,0.0003024269955680889,0.0030494278689295728,-0.0008683072189061248,-0.00011632620374309309,2.563978557777472,5.932381191827049,2.461501746328555,0.31954293563964103,0.31654702156088615,0.08389213741697554,25.0,25.0,25.0,25.0,25.0,25.0,24.0,11.678,0.0,0.0,1.0,1780982820872804977
1780982820989808720,-0.00001205505568889814,57.287890822252514,103.13209381128615,0.0016537731721702382,-0.0032265634612064276,0.00006305216762854419,-0.00006927519731579623,0.0010057947010704137,-0.0002939912701194965,-0.003025703114757604,0.0009217668302095704,0.00011354846260419348,2.564378012268413,5.940055652085001,3.0755139775279714,0.4487423175384429,0.3228267439203341,0.1646613193786111,25.0,25.0,25.0,25.0,25.0,25.0,24.0,12.516,0.0,0.0,1.0,1780982820975799740
1780982821089512845,-0.000011603137401656134,57.287892312762466,103.13209578242152,0.0016688404415875588,-0.0032287659491881397,0.00006236163265001157,0.00007515891117207482,-0.000946405929421765,0.0003134055239011686,0.003097658146827775,-0.0009151441068425552,-0.00011892406989870324,2.566197214576097,5.932551885909233,2.461254529586248,0.3194975988882144,0.3166200004177256,0.08386257502244843,25.0,25.0,25.0,25.0,25.0,25.0,24.0,11.68,0.0,0.0,1.0,1780982821076789255
1780982821189039267,-0.000011770560074822988,57.28789764763868,103.132095270804,0.0016596498688366173,-0.003225287118909485,0.00006265044989943313,-0.00007430183542684097,0.0009844383005037365,-0.00029843001780369106,-0.003025496284563661,0.0009110109265172298,0.00011496669728754248,2.5671226996088294,5.940026102666552,3.0759111509769372,0.4487972346261343,0.3227339576735831,0.16469830032721977,25.0,25.0,25.0,25.0,25.0,25.0,24.0,12.519,0.0,0.0,1.0,1780982821176413603
1780982821289505704,-0.000011272411162900564,57.28789564230111,103.13209752110156,0.0016767907229002133,-0.0032293556661445845,0.00006189563084412031,0.00008035737160228409,-0.000909877688406975,0.00031587844120407643,0.0030906817877094828,-0.0008951474027859084,-0.00012021887167876772,2.569569061033746,5.932910672800054,2.461137001050831,0.31938269397809904,0.316479053689496,0.08379803200544553,25.0,25.0,25.0,25.0,25.0,25.0,24.0,11.683,0.0,0.0,1.0,1780982821274837273
1780982821389401995,-0.000011317111593670524,57.28790644970819,103.13209762331395,0.0016685751461682436,-0.0032242145103109476,0.00006198533893280817,-0.00007613420815569106,0.0010389828037544043,-0.00028225476688901953,-0.002986970715392548,0.0009087709496399496,0.00011164304526466042,2.570755509450037,5.939707782102906,3.076069167853292,0.44892108367531874,0.32288546908166027,0.16476826992378976,25.0,25.0,25.0,25.0,25.0,25.0,24.0,12.523,0.0,0.0,1.0,1780982821375734803
1780982821489135993,-0.000013426769474276853,57.28785529614152,103.13208667806023,0.001640896575741315,-0.0032343181557591195,0.00006575671877872352,0.00014711535412139336,0.0005370498797381835,0.000625537398848113,0.004083827228346466,-0.000619890205991947,-0.00023088900399530072,2.590893469679421,5.932566588803934,2.458176116707589,0.3190766881382845,0.31656705572096816,0.08353735208579618,25.0,25.0,25.0,25.0,25.0,25.0,24.0,11.701,0.0,0.0,1.0,1780982821476514409
1780982821589297643,-0.000010635372460660944,57.28792040383537,103.13210072574635,0.001675739182058245,-0.0032215987647077784,0.00006117307598133596,-0.00006804382147120847,0.0012425668534825408,-0.00020172378634186747,-0.002779634497405276,0.0008941623599418663,0.00009135672934935874,2.587731964333291,5.939875842271907,3.078287256877432,0.44933023754870094,0.3228436890680269,0.16503056791062037,25.0,25.0,25.0,25.0,25.0,25.0,24.0,12.543,0.0,0.0,1.0,1780982821576556561
1780982821689203179,-0.000016787075142993472,57.287784064389584,103.13206412106378,0.0015474116245586015,-0.003237464755255533,0.00007304121012409635,0.00007201162943681953,0.002480492454957416,0.0006151964316251833,0.003921508832923276,0.00014636659315193294,-0.00024170334696824668,2.1190814397638684,5.924704441984345,2.497155980201971,0.3351925047023431,0.3180240242190448,0.09238277686218334,25.0,25.0,25.0,25.0,25.0,25.0,24.0,11.287,0.0,0.0,1.0,1780982821677683201
1780982821789648162,-5.994647027727128e-6,57.287977812989254,103.13211849973278,0.0017112993203972043,-0.0032159178964881263,0.00005494052597414554,-0.000017954107003037173,0.0023171625172445313,0.00015617695104916092,-0.002343120511122925,0.0009219136966520638,-0.00003068018337952798,2.775278017454936,5.939665734732568,3.095457042661866,0.45563526153920497,0.3236826977377425,0.16851677895008713,25.0,25.0,25.0,25.0,25.0,25.0,24.0,12.758,0.0,0.0,1.0,1780982821779029195
1780982821889399661,-4.244274623574897e-6,57.28798402372886,103.13212392450043,0.001750663727167937,-0.0032200614236294134,0.000052670911549938405,0.00012451677428801253,-0.0011255054152783984,0.0002235821590729135,0.003656853299721655,-0.0008297066898907039,-0.00011779715546648456,2.778450160572379,5.932634581349679,2.4407756285542415,0.31264950050114687,0.31583505736034334,0.08001297389438221,25.0,25.0,25.0,25.0,25.0,25.0,24.0,11.86,0.0,0.0,1.0,1780982821879830360
1780982821989404696,-9.136303574593522e-7,57.28801431641979,103.13212772196016,0.001781270332755618,-0.0032095209098664604,0.00004929832711118266,-0.00004896264554749128,0.0018371314758735256,-0.000025464447712254628,-0.0027958165692534807,0.0009331801663454326,0.00002974543864065791,2.769846405058013,5.940657767222403,3.0972595123151505,0.4549331521044813,0.3231846679293188,0.1682400556436683,25.0,25.0,25.0,25.0,25.0,25.0,24.0,12.754,0.0,0.0,1.0,1780982821980921505
1780982822089583917,4.189006477296225e-7,57.288006669843355,103.13212706707336,0.0018047147669159528,-0.003210959451549572,0.00004827113406898571,0.00007310948019649033,-0.0017975279576827126,0.00002238923347186753,0.0030617441407720125,-0.0008864232013260582,-0.00005017866022493573,2.744511818588718,5.932067890270709,2.442779073183444,0.3140262713383812,0.3162034338885777,0.08072240752303474,25.0,25.0,25.0,25.0,25.0,25.0,24.0,11.83,0.0,0.0,1.0,1780982822081846985
1780982822189224908,-7.277106221198365e-7,57.28802600481654,103.1321273897262,0.0017916572878721511,-0.003204562704593837,0.00004846205989521585,-0.00005390016499503487,0.0030461363866910065,-0.0000404383151839846,-0.002937387029570348,0.0014384800404631962,0.000025925026926468345,2.7224321416020834,5.942340842366114,3.0945547748215994,0.45314700033521355,0.3223123328320644,0.1672871628920333,25.0,25.0,25.0,25.0,25.0,25.0,24.0,12.702,0.0,0.0,1.0,1780982822181589338
1780982822289814471,1.1494785275542695e-7,57.28804792604595,103.1321260880686,0.0018100640091412807,-0.0031942921003247525,0.000047617610373703886,0.00007869057147779008,-0.0017781811205164937,0.00004734794253799593,0.003082390440112564,-0.000910092826887204,-0.000055149749097956066,2.6390183815072845,5.929639845617283,2.4496407298396567,0.31801627712031255,0.31767347900915643,0.08284133647241751,25.0,25.0,25.0,25.0,25.0,25.0,24.0,11.737,0.0,0.0,1.0,1780982822282004229
1780982822389344785,9.063698777282258e-6,57.28811470116164,103.13213234641675,0.0018729478342938471,-0.0031583275608788775,0.000035868357363214185,-0.00010046307349875316,0.0029602928114985517,0.0003470301186427592,-0.0034011658760832245,0.0010356589992198068,0.0002842872202428939,2.786432472476269,5.942697821235801,3.108857645399703,0.4519534363915788,0.32210958742525453,0.1673938583535731,25.0,25.0,25.0,25.0,25.0,25.0,24.0,12.779,0.0,0.0,1.0,1780982822381628319
1780982822489962995,0.000014069239973705968,57.288124340785146,103.1321339105722,0.0019333640653213904,-0.0031487632362883775,0.00002867078332297423,0.00013967291566679667,-0.0020642234050844473,-0.0001766302569597733,0.00392961760066838,-0.0007360714402468095,-0.0002620602055945671,2.770808395473662,5.929759397221101,2.4301276984498297,0.3164198036763806,0.3174530258826146,0.08132011267795669,25.0,25.0,25.0,25.0,25.0,25.0,24.0,11.846,0.0,0.0,1.0,1780982822482374474
1780982822589456413,7.042793292718037e-6,57.28811629958116,103.13212830841644,0.0018660091550238493,-0.0031532593864054183,0.00004015135056527887,-0.0001489919386678309,0.001479144863221177,-0.000031637421466180724,-0.004020120613624155,0.0007493281996190284,0.00023528023153226868,2.7663683285220797,5.942598559485045,3.1062131740465047,0.4520385898713873,0.3219134911025496,0.1672389524065462,25.0,25.0,25.0,25.0,25.0,25.0,24.0,12.756,0.0,0.0,1.0,1780982822583715002
1780982822689732187,-4.7363850477683535e-6,57.288020648081094,103.13210164745844,0.0017630104648160437,-0.003174777995802462,0.00005379195374960287,-0.00009202891692371024,-0.00264429384218424,-0.000442160295644261,0.0014406561611381707,-0.0009818877658565304,0.00004193334742788055,2.559658027326145,5.932110184807333,2.4607975580028514,0.3200478074648189,0.3166731666799826,0.08409226402206264,25.0,25.0,25.0,25.0,25.0,25.0,24.0,11.673,0.0,0.0,1.0,1780982822685138805
1780982822789722341,-0.00001234964896695437,57.28794319815756,103.13207545008686,0.0016065850629774208,-0.003184049454993412,0.00006207062009926194,-0.0000385569117729869,0.0005124985383695521,-0.00020005874459299265,-0.0040407710998375465,0.0006295920816021342,0.00008389289241668751,2.5825552138109287,5.943036200627001,3.0797858231481787,0.44877065875545386,0.3227488714497934,0.16481578044758607,25.0,25.0,25.0,25.0,25.0,25.0,24.0,12.542,0.0,0.0,1.0,1780982822784088297
1780982822889776411,-0.000013372941660831764,57.287915718746234,103.13207162307728,0.0015779568211786452,-0.0031919947735254807,0.00006357523344750246,6.673416912973362e-6,-0.0011293305351275844,0.0000635316554330465,0.0027357780034587714,-0.0007324119194226734,-0.000034688232219601354,2.5824452179508626,5.929275190752404,2.4566390311107904,0.3194970941686855,0.3167359443721899,0.08373409423687235,25.0,25.0,25.0,25.0,25.0,25.0,24.0,11.688,0.0,0.0,1.0,1780982822884103196
1780982822989710921,-0.000013550847564613824,57.287917370141926,103.13207172281938,0.0015680891312114785,-0.0031905661061017,0.00006401667250545365,-0.000010421510421823091,0.0010852418624711891,-0.00006261725446518959,-0.002749116871719996,0.000715167112132316,0.000041928981535719024,2.580414793401683,5.943684600396652,3.0804536172865538,0.44870581874820464,0.32246589276802873,0.16477387284093847,25.0,25.0,25.0,25.0,25.0,25.0,24.0,12.54,0.0,0.0,1.0,1780982822984795783
1780982823089157697,-0.00001358025819147685,57.28791431615677,103.1320726269993,0.0015834760433270198,-0.0031935388084355525,0.00006400801933550539,9.260663810846127e-6,-0.0010654475561456492,0.0000759473276017176,0.002821866067446785,-0.0007204424131146608,-0.00003951394035669535,2.5798416686560284,5.928935209838978,2.4567249910003413,0.319566156474433,0.31688782762449474,0.08377734156613556,25.0,25.0,25.0,25.0,25.0,25.0,24.0,11.686,0.0,0.0,1.0,1780982823085421534
1780982823189054006,-0.00001367805289607639,57.287917307828785,103.1320730180923,0.0015767109540030615,-0.0031918972589960273,0.00006432271638358971,-0.000010486519668604577,0.0009923598332246442,-0.00006315761303689324,-0.002714112934683467,0.0006755625454694159,0.00004290874197434697,2.5779666785403337,5.943455891808874,3.079888190636357,0.44868677852923416,0.32258334161175395,0.164750618911685,25.0,25.0,25.0,25.0,25.0,25.0,24.0,12.537,0.0,0.0,1.0,1780982823185423584
1780982823289122432,-0.000013684944866782835,57.28790656448228,103.13207402309943,0.0015945963796871851,-0.003198396906576452,0.00006429817435128962,9.719245909365478e-6,-0.0011132701209703435,0.00007752483132625802,0.002837783273493833,-0.0007445278903595927,-0.00004059523786865002,2.57745658537081,5.929132826909651,2.45725622377861,0.31958776104887726,0.3167814714786904,0.08380097218437509,25.0,25.0,25.0,25.0,25.0,25.0,24.0,11.684,0.0,0.0,1.0,1780982823287400990
1780982823389581099,-0.00001371332545832898,57.28790293125402,103.13207462957,0.0015995327519974895,-0.0032006452476344618,0.00006438291555844749,9.971231992219614e-6,-0.0010909004986010995,0.00007775301773453678,0.002849362374237279,-0.0007352199449801696,-0.000041149242996577336,2.592567502625213,5.928974493035782,2.4557109375858572,0.3191086008646839,0.31680418005808786,0.08353025834556209,25.0,25.0,25.0,25.0,25.0,25.0,24.0,11.697,0.0,0.0,1.0,1780982823371379629
1780982823489912954,-0.00001416772724399946,57.28789667523752,103.13207221842804,0.0015752748356503456,-0.0031990946906205815,0.0000657034732625327,-1.2335877802255432e-7,0.0014602866684970146,0.00002024353804872383,-0.0022202800502110587,0.0007626715291558955,0.00001269652262148449,2.5924743557893217,5.94373882054939,3.0813938361843616,0.4491642787787289,0.3225125149874324,0.16501500559097326,25.0,25.0,25.0,25.0,25.0,25.0,24.0,12.554,0.0,0.0,1.0,1780982823469221350
1780982823589696792,-0.00001379861707118862,57.28790296598805,103.1320759596273,0.0016103671538605878,-0.0032021228737134813,0.00006459197159935474,0.00001059507421513926,-0.001140659251925495,0.000078393111777607,0.0028954727448993185,-0.0007606800485363846,-0.000042442812226598063,2.5940559284544684,5.928783327730868,2.4555035692973797,0.319031078301503,0.31686513217999945,0.0834940898778785,25.0,25.0,25.0,25.0,25.0,25.0,24.0,11.698,0.0,0.0,1.0,1780982823576809152
1780982823689690751,-0.000013829897473155143,57.28790203772313,103.1320765691879,0.0016056730722521309,-0.003202560252605763,0.00006475519086944971,-0.000010038890721956116,0.0010644233256070926,-0.000057222249587898175,-0.0027516700518721033,0.0007018240854751737,0.00004105379386771159,2.593506316090512,5.943977625970613,3.0815684685608673,0.449227458794814,0.32243635458719044,0.16504354424227247,25.0,25.0,25.0,25.0,25.0,25.0,24.0,12.556,0.0,0.0,1.0,1780982823675992910
1780982823789138379,-0.000013799939300170389,57.28789038819493,103.1320774861484,0.0016230395954535883,-0.0032094118114281813,0.00006464648851943571,9.737865118789276e-6,-0.0011814499643684176,0.00006729046921275821,0.002869999345429889,-0.0007653410243927032,-0.00003964225752850369,2.5942028678051696,5.928739673755846,2.4555630378783713,0.3190023136979807,0.31686305907579443,0.08348352362753578,25.0,25.0,25.0,25.0,25.0,25.0,24.0,11.698,0.0,0.0,1.0,1780982823772448153
1780982823888991131,-0.000013854883684717035,57.28789348923544,103.13207775990394,0.0016165340084312047,-0.003207702443548537,0.00006485542276391538,-9.799303582075532e-6,0.00120551492240048,-0.00005374236225298875,-0.002784890304008173,0.0007596765722771077,0.000039376999462294675,2.5937931310108646,5.944132543871744,3.0816207289149653,0.4492479198674762,0.32239110475959126,0.1650517842407542,25.0,25.0,25.0,25.0,25.0,25.0,24.0,12.556,0.0,0.0,1.0,1780982823872122155
1780982823989701507,-0.000013827658144544571,57.287897852181025,103.13207841269409,0.0016323077114048369,-0.0032073860127151007,0.00006467560543689062,9.208669589226524e-6,-0.0010557384879768248,0.000056986960608117823,0.0028590251429965147,-0.0006997493479895252,-0.00003826342792074179,2.5947478957131533,5.928634548716402,2.4555039221983397,0.3189715018332648,0.31690224973927583,0.083469708283862,25.0,25.0,25.0,25.0,25.0,25.0,24.0,11.698,0.0,0.0,1.0,1780982823970140085
1780982824089135694,-0.000013873190473903278,57.28791289072287,103.13207863141004,0.0016242628991511865,-0.003200488057270216,0.00006479083828378,-8.834356825102647e-6,0.0012814811162153244,-0.00004239902041433888,-0.0027919406615531757,0.0007780781805149995,0.000035336743975724114,2.5940516654696086,5.944126933966506,3.0816161660351646,0.4492739255588107,0.3223484008330444,0.16506159966311587,25.0,25.0,25.0,25.0,25.0,25.0,24.0,12.556,0.0,0.0,1.0,1780982824078613192
1780982824189053270,-0.00001383734545880486,57.28791170669342,103.13207945357152,0.001640679051793252,-0.0032027578485068747,0.0000646069793371599,8.562250561483742e-6,-0.001217129654281753,0.00005020394160703373,0.0028925442654145835,-0.0007603814295337109,-0.0000346921819380837,2.5941464820254536,5.928768205984273,2.455622160690244,0.31898575255486794,0.31697988260793714,0.08348090662619786,25.0,25.0,25.0,25.0,25.0,25.0,24.0,11.698,0.0,0.0,1.0,1780982824183406935
1780982824289363929,-0.000013880408669457644,57.287917840044535,103.13207986538656,0.0016333989033620547,-0.003199906753075527,0.00006474707490787708,-8.496024319782378e-6,0.0012516729313864976,-0.0000353871032892732,-0.002814674114515782,0.0007568223729664576,0.00003351102988373427,2.59276310220312,5.943673812167313,3.0811807089266496,0.44925598901512953,0.3223853902745363,0.1650446686110367,25.0,25.0,25.0,25.0,25.0,25.0,24.0,12.554,0.0,0.0,1.0,1780982824278792749
1780982824389448797,-0.000013853526222252878,57.28791332000098,103.13208058669925,0.0016497590457653709,-0.0032034770869474485,0.00006461110318022226,8.154756154738518e-6,-0.0012509359916979665,0.00004277203459411543,0.002910251342049053,-0.0007658277449995272,-0.000032435231851709296,2.5926998006152844,5.929253479842784,2.4561221028547067,0.319000809157434,0.31690458746003464,0.08349744138323721,25.0,25.0,25.0,25.0,25.0,25.0,24.0,11.697,0.0,0.0,1.0,1780982824379686625
1780982824489706329,-0.000013895268773566547,57.28791907215725,103.1320809410664,0.0016419804444499804,-0.0032007239138181235,0.00006474912440957457,-8.11889326416741e-6,0.00127266984384052,-0.000030090709921044407,-0.002843426055290818,0.0007595064424296367,0.0000315545603783532,2.5911300489171,5.943238170870591,3.0806935112047,0.4492318815155528,0.3224478924056822,0.16502358792017469,25.0,25.0,25.0,25.0,25.0,25.0,24.0,12.552,0.0,0.0,1.0,1780982824480135131
1780982824589585161,-0.000013857453440460208,57.28791411016772,103.13208156156226,0.0016580682600043542,-0.003204369795184097,0.00006460087404491012,8.724892822015817e-6,-0.0012773416021012527,0.0000367905669442119,0.002928683189845122,-0.0007697666726143454,-0.00003228757621387175,2.590996566236911,5.929666832644477,2.4566012755327074,0.31902763038376447,0.31684691589663005,0.08351976415884944,25.0,25.0,25.0,25.0,25.0,25.0,24.0,11.697,0.0,0.0,1.0,1780982824582824825
1780982824689018441,-0.000015820362385124256,57.28786135063666,103.13206726024032,0.0015584725092431127,-0.003206608806030839,0.00007010958203141817,0.00004393096010369827,0.0027873999432727267,0.0003781651794314431,-0.0004249052415029157,0.0008486308637973666,-0.00011650966613081666,2.616423907089858,5.945199140527628,3.0868985899184955,0.4507169658973573,0.32196303812004246,0.16569278901304835,25.0,25.0,25.0,25.0,25.0,25.0,24.0,12.587,0.0,0.0,1.0,1780982824686279155
1780982824789913110,-0.00001363303395329368,57.28791432785368,103.1320827005518,0.001662628417104498,-0.0032054729001966785,0.00006431002326303528,0.000021014388442684843,-0.001199157840927348,0.00006846466628053056,0.0031499014660223337,-0.0007737732059040922,-0.00005164790053079007,2.5964700977308985,5.930576141173535,2.456556214011051,0.31883808106699707,0.31671014712876583,0.08341692129213267,25.0,25.0,25.0,25.0,25.0,25.0,24.0,11.703,0.0,0.0,1.0,1780982824787285476
1780982824889237927,-0.000013445361633427643,57.28792452081964,103.1320842924737,0.0016604207814584038,-0.003202443969390188,0.0000639224918702635,-0.000016723556592499455,0.0013412863771952014,-0.00002497105821170396,-0.002890808547691542,0.0007762112878651377,0.00003860296047531584,2.595397760765028,5.941876846335968,3.080289065749744,0.44940937271886416,0.322655989074972,0.16511288570112936,25.0,25.0,25.0,25.0,25.0,25.0,24.0,12.555,0.0,0.0,1.0,1780982824885716681
1780982824989543640,-0.000013240750519497336,57.28791995631015,103.13208515982556,0.0016767918731222123,-0.003206156296054934,0.00006355665905987036,0.00002179966760365358,-0.0013268620306296573,0.00004176581524984895,0.0029849067214447614,-0.0007887527205777819,-0.000044899281631147194,2.595816596865643,5.93102384294879,2.4569322167297623,0.31883586101430333,0.31664443409629905,0.08342146568112928,25.0,25.0,25.0,25.0,25.0,25.0,24.0,11.703,0.0,0.0,1.0,1780982824985033267
1780982825089767726,-0.000013204643535397737,57.287926248740554,103.13208570319772,0.001668412284390354,-0.00320341435337231,0.00006354971957994107,-0.00002201827706196947,0.0013494238696473127,-0.000030161989533826815,-0.002919552112401181,0.000782529550766023,0.00004347095686357382,2.594885492824356,5.9414240737099275,3.079938112700124,0.44941743920763394,0.3227135393189233,0.1651113572289781,25.0,25.0,25.0,25.0,25.0,25.0,24.0,12.553,0.0,0.0,1.0,1780982825085116254
1780982825189613729,-0.000013099171790938232,57.28792701285049,103.13208626886174,0.001671595982350743,-0.003203778912682081,0.00006338544326181941,-0.000024132213672722977,0.001360178856968538,-0.00003081942664630307,-0.002926986995658545,0.0007863008130384702,0.00004500076240495369,2.594883190637161,5.941208497228772,3.0798001827359864,0.44942604321329394,0.3227443418795601,0.16511400779363858,25.0,25.0,25.0,25.0,25.0,25.0,24.0,12.553,0.0,0.0,1.0,1780982825165844460
1780982825289291246,-0.00001282101916392654,57.28792259021504,103.13208723860065,0.001688350190958896,-0.003207544309910819,0.00006292332358122003,0.000030389988305729403,-0.0013504460573262695,0.00004723340993354317,0.003023724078212094,-0.0007998779624229678,-0.00005224741020849361,2.5958048601978976,5.931793595036758,2.4574184613001067,0.3188060333317515,0.31654246498462174,0.0834123825680233,25.0,25.0,25.0,25.0,25.0,25.0,24.0,11.704,0.0,0.0,1.0,1780982825282384671
1780982825389697515,-0.000012766834925069978,57.287929919023256,103.13208794278118,0.0016803752924911,-0.0032045841508133947,0.00006284194109335436,-0.000030163584231244023,0.001392724048205951,-0.000031005318875012995,-0.0029511500267332164,0.0007957470795678128,0.00004887991669300128,2.5960069667157715,5.940543771767822,3.079511576003734,0.4494813974277577,0.32283923865284536,0.16514004380168668,25.0,25.0,25.0,25.0,25.0,25.0,24.0,12.554,0.0,0.0,1.0,1780982825387004836
1780982825489049461,-0.00001241129811942207,57.28792586275958,103.13208914238898,0.0016979625148022264,-0.0032084617461135253,0.00006225074300198022,0.0000374769076047821,-0.0013697363740534437,0.00004678231582077454,0.0030468155956921757,-0.0008019947711968512,-0.00005724647796651322,2.5969439477540996,5.932240890924362,2.457590315890726,0.318756223053156,0.31648494865826504,0.08338757363409947,25.0,25.0,25.0,25.0,25.0,25.0,24.0,11.705,0.0,0.0,1.0,1780982825484463331
1780982825589019717,-0.000013738930134351098,57.287899338201775,103.13208168819416,0.0016568087417650123,-0.003209219821796878,0.00006564849904364909,-0.00010051199404167149,-0.0011592008015694868,-0.0006719493226471255,-0.005076192267579184,0.0005398261151432964,0.0002761195431158221,2.2816193648433063,5.942703137847866,3.0475964100963373,0.4396993440944312,0.32169620729732445,0.1595725593140004,25.0,25.0,25.0,25.0,25.0,25.0,24.0,12.193,0.0,0.0,1.0,1780982825586417212
1780982825689163835,-0.000013000561511413442,57.28791960209201,103.13208697674214,0.0016645377867010023,-0.0032073398744765056,0.0000635623123597446,-4.322364604403117e-6,0.0022318506160813787,0.000203512530305606,-0.001903801521498814,0.0008414500992955677,-0.00003515128999253774,2.634537273785592,5.939892102752343,3.0831069196667005,0.4506161394416055,0.32316031709783327,0.16580516303014622,25.0,25.0,25.0,25.0,25.0,25.0,24.0,12.597,0.0,0.0,1.0,1780982825665251024
1780982825789055273,-0.000010539837048414872,57.28795691048289,103.1320978297724,0.0017226625214505275,-0.003204924541780489,0.000058773213594572565,-0.000049040820363635454,0.001596381026883272,0.00002752652319771241,-0.0027602592552411448,0.000786869048223754,0.00004257112014328424,2.6388257837774907,5.940040263451211,3.083883603490799,0.4507013163775238,0.3230583473964075,0.16586544003087653,25.0,25.0,25.0,25.0,25.0,25.0,24.0,12.602,0.0,0.0,1.0,1780982825786337153
1780982825889383091,-9.124289284795269e-6,57.287960636717614,103.13210088130953,0.001754180058704239,-0.003207046596629408,0.00005685287306815107,0.00007430412460781514,-0.001379197066022337,0.00004502434796072405,0.0031641731666244856,-0.0007698964190222146,-0.0000768190357707582,2.6452028542468704,5.932637313576563,2.452351200947469,0.3174433718875665,0.3162874669962107,0.08259190304562139,25.0,25.0,25.0,25.0,25.0,25.0,24.0,11.747,0.0,0.0,1.0,1780982825887491012
1780982825988986982,-8.495000292447084e-6,57.28797196237469,103.1321041621984,0.0017549314514114516,-0.0032048268245724243,0.00005589621367627508,-0.000057831921300973935,0.001440141849264336,0.000023835158955797734,-0.0029043361390081804,0.0007279561688730293,0.00005376935376448062,2.647283265582053,5.939856171958363,3.085205466789225,0.45077737052794287,0.3231237019107688,0.16595319415183377,25.0,25.0,25.0,25.0,25.0,25.0,24.0,12.612,0.0,0.0,1.0,1780982825986464798
1780982826089398637,-8.00433528239015e-6,57.287958382573066,103.13210453346144,0.001775648206917314,-0.0032117107451035444,0.00005536326825370612,0.00006293601457220523,-0.0015508208792947484,-7.038594746559993e-7,0.003054977517473608,-0.000800287460196303,-0.00006108908804407765,2.643436507790042,5.932823468195424,2.452559247385466,0.3175248569929382,0.31620320256155754,0.08263131192120338,25.0,25.0,25.0,25.0,25.0,25.0,24.0,11.745,0.0,0.0,1.0,1780982826086850963
1780982826189810198,-8.70035866549691e-6,57.28795016745461,103.13210267762112,0.001763685815799894,-0.003213036549024259,0.0000562312386182692,-0.00006991667217267818,0.0012820857568805015,-0.00003234274103618589,-0.0030238238824194714,0.0007149066548390882,0.00007183096193392227,2.6353396426305973,5.939856587149671,3.083452618706945,0.4505853329886237,0.3231307215194314,0.16580156209632804,25.0,25.0,25.0,25.0,25.0,25.0,24.0,12.598,0.0,0.0,1.0,1780982826187210728
1780982826288980501,-9.191792800097226e-6,57.28793609765201,103.13210053832154,0.001770652989929198,-0.003217599217667871,0.00005692985042880483,0.000054059373304106165,-0.0014675422696872355,-0.000014500950466906055,0.002896312722894907,-0.0007499807744794325,-0.000053152316789164225,2.6280980369710645,5.932911731042365,2.454638421305195,0.3178376398701786,0.31617447101948243,0.08284729923613375,25.0,25.0,25.0,25.0,25.0,25.0,24.0,11.733,0.0,0.0,1.0,1780982826288333561
1780982826390017354,-9.759412071154992e-6,57.2879351570857,103.13209917469334,0.0017643989278814066,-0.003216643840988757,0.00005772724379829103,0.00005081054772299886,-0.0014477431288846749,-0.00002302180667460384,0.002863088270162202,-0.0007314258140950083,-0.00005077199792284839,2.622107891559728,5.9329121451263775,2.4553817682656356,0.31797813260995417,0.3161672510917551,0.08293771549569248,25.0,25.0,25.0,25.0,25.0,25.0,24.0,11.727,0.0,0.0,1.0,1780982826372227393
1780982826489328700,-0.00001341660663173122,57.28788917770725,103.132084523347,0.001687192735303068,-0.0032176755821750574,0.00006487599389716504,0.00007041644665344979,-0.0004704586485442758,0.00019916211805076024,0.003815528178457896,-0.0006177214819861655,-0.00013328139035932322,2.6220410321905723,5.93262173992152,2.455108569554471,0.31794638151362276,0.3162071854217041,0.08292849884815615,25.0,25.0,25.0,25.0,25.0,25.0,24.0,11.727,0.0,0.0,1.0,1780982826487670859
1780982826589129353,-0.00001201368155065066,57.287923363618205,103.13209239503108,0.001722159448382186,-0.003213274129355602,0.00006158559676276449,0.00004732870682530818,-0.0011896670343391864,0.00003507201015735526,0.0030743102698713516,-0.0007042801959943748,-0.00006671280348594764,2.625028098000335,5.933253426369307,2.4556745360496213,0.31775142431266823,0.31593459801276846,0.08283915378396657,25.0,25.0,25.0,25.0,25.0,25.0,24.0,11.73,0.0,0.0,1.0,1780982826570320704
1780982826689618530,-0.000011804106557665072,57.287937284434605,103.13209436230946,0.0017206117757928383,-0.003209202908272514,0.00006101488296627437,-0.00004030718048071972,0.001398632786952999,0.000016580277363352338,-0.0028463851538724013,0.000726667696190517,0.000048847592841728496,2.6224583649705684,5.939370498579946,3.0810927511154067,0.45044541007424355,0.3234144620530525,0.16566282190175138,25.0,25.0,25.0,25.0,25.0,25.0,24.0,12.582,0.0,0.0,1.0,1780982826670067495
1780982826789210723,-0.000011608408845059497,57.28793135237293,103.13209453340797,0.001735792969945354,-0.0032125930024135847,0.00006076796749861136,0.00004072928390465663,-0.0013782425633515928,-9.860421339994633e-6,0.0029087298152083775,-0.0007270758626672764,-0.00005071804166440624,2.6208046887617913,5.933434497144949,2.456335673387655,0.31785171172827026,0.3158683138631507,0.08290321080416767,25.0,25.0,25.0,25.0,25.0,25.0,24.0,11.727,0.0,0.0,1.0,1780982826769494571
1780982826889567775,-0.000011892986326308172,57.28793593026612,103.13209421126908,0.0017234779840370495,-0.0032095863861227665,0.00006120717202868066,-0.00004141426019865973,0.0013220070776981609,9.676736461308068e-7,-0.0028933502848256286,0.0007153417138016764,0.00005483231838414068,2.617959159987183,5.938969932848056,3.080198062620563,0.4503722419835023,0.3235950407472688,0.16560692345019418,25.0,25.0,25.0,25.0,25.0,25.0,24.0,12.577,0.0,0.0,1.0,1780982826871986531
1780982826989845397,-0.00001188854694212897,57.287933510371005,103.13209362326384,0.0017330991524865055,-0.0032104612819167898,0.00006127194881475807,0.000036839965685762906,-0.0012621818653280649,-7.948601691056775e-6,0.0028398959692109787,-0.0006810880863279471,-0.000049340306309262783,2.6167802288259554,5.933785998979369,2.45713835747504,0.3179118732735533,0.3157022595897707,0.08295131741198755,25.0,25.0,25.0,25.0,25.0,25.0,24.0,11.724,0.0,0.0,1.0,1780982826972115453
1780982827089114601,-0.00001222078551766599,57.28794241918332,103.13209298606752,0.0017182682664241566,-0.003205156141086752,0.00006179781558032789,-0.00003847443841134872,0.0013181133783715926,-7.902382774349328e-6,-0.0028817349745340116,0.0007271900142272889,0.0000549876305841218,2.614125397991991,5.938947402239273,3.0797142597619325,0.4502899059151996,0.32360328223050805,0.16555148606051268,25.0,25.0,25.0,25.0,25.0,25.0,24.0,12.572,0.0,0.0,1.0,1780982827072484915
1780982827189816503,-0.000012223484414728204,57.28793742992642,103.13209246698626,0.0017285503772269562,-0.003207257870211254,0.00006186401076169887,0.000034315038081941266,-0.0013349998655216922,5.470059785968362e-7,0.002855744595218706,-0.0007262083233438842,-0.00004941918240032406,2.6131438325988716,5.9335003971076175,2.4573273668431685,0.3180185448817592,0.3158390601825505,0.08301474420771116,25.0,25.0,25.0,25.0,25.0,25.0,24.0,11.721,0.0,0.0,1.0,1780982827171221533
1780982827289131067,-0.000012486069781235891,57.287941147390974,103.13209205984732,0.001716658234067901,-0.003204532736088398,0.00006230420709989223,-0.00003564501864466016,0.001297407400330245,-9.041402073393313e-6,-0.0028541288661074553,0.000721230284443076,0.00005367474498403749,2.610796131163656,5.9391576345588675,3.0795033628721127,0.45019167952875566,0.32350146037524796,0.1654933503571731,25.0,25.0,25.0,25.0,25.0,25.0,24.0,12.569,0.0,0.0,1.0,1780982827271491683
1780982827389610776,-0.000012452217685797275,57.287934382630425,103.1320917153077,0.0017285906692385549,-0.0032076523921061575,0.00006230224516553104,0.00003278633722665401,-0.001334454482601034,3.936846166530049e-6,0.002859038935907428,-0.0007321299947999223,-0.000049830803993427365,2.609452535610029,5.93341154563349,2.45768745445411,0.31811819443910194,0.31588199569439873,0.08307548991882867,25.0,25.0,25.0,25.0,25.0,25.0,24.0,11.718,0.0,0.0,1.0,1780982827372030044
