timestamp_ns,gyro_x,gyro_y,gyro_z,accel_x,accel_y,accel_z,timestamp_ns
1780982802188882358,,,,,,,
1780982802289938214,1.8224112636744394e-6,0.004813418257981539,0.000018429082047077827,0.01418824028223753,0.9999632835388184,-0.0024546796921640635,1780982802280296035
1780982802389105794,-1.9083174720435636e-6,-0.00509272888302803,-0.000018505643311073072,-0.012650899589061737,1.000044345855713,0.0024383198469877243,1780982802381347147
1780982802489031762,1.821137288970931e-6,0.004809087608009577,0.000018511154848965816,0.013381008058786392,0.9999555349349976,-0.0025210699532181025,1780982802482052057
1780982802589831274,-1.903946440506843e-6,-0.00508191529661417,-0.00001854578840720933,-0.013104062527418137,1.0000461339950562,0.0025176052004098892,1780982802581130538
1780982802689938320,1.8181218592872028e-6,0.004800514318048954,0.000018550237655290402,0.013915838673710823,0.99995356798172,-0.0026172345969825983,1780982802682229989
1780982802789056375,-1.86903594112664e-6,-0.004988563247025013,-0.000022256157535593957,-0.01245307270437479,1.000052571296692,0.0024709247518330812,1780982802782393166
1780982802889300801,1.8151421272705193e-6,0.004792205058038235,0.000018408234609523788,0.013789432123303413,0.9999542236328125,-0.0025881642941385508,1780982802882555082
1780982802989474122,-1.9047602108912542e-6,-0.005084760952740908,-0.000018452215954312123,-0.012553433887660503,1.0000439882278442,0.00242023728787899,1780982802982839140
1780982803089830747,1.8240750705444952e-6,0.004815568681806326,0.00001847356543294154,0.013425281271338463,0.9999555349349976,-0.00254191760905087,1780982803083211498
1780982803189254272,-1.9097590211458737e-6,-0.005098098423331976,-0.000018433225704939105,-0.013869930990040302,1.000048279762268,0.0026873049791902304,1780982803182598296
1780982803289889785,1.8279412188348942e-6,0.004826048389077187,0.00001843716381699778,0.013323578052222729,0.9999561905860901,-0.002534569473937154,1780982803284225895
1780982803389182668,-1.91326853382634e-6,-0.005107204429805279,-0.0000184083946805913,-0.012750078924000263,1.0000442266464233,0.0024832645431160927,1780982803384575980
1780982803489017772,1.8306135416423786e-6,0.004833452869206667,0.00001840522418206092,0.013785515911877155,0.9999548196792603,-0.0026326903607696295,1780982803484388148
1780982803589534043,-1.9158394479745766e-6,-0.005113731138408184,-0.000018381968402536586,-0.01181487925350666,1.000040888786316,0.0023106136359274387,1780982803587776710
1780982803689642128,1.5437723277500481e-6,0.00406655203551054,0.000016008561942726374,0.012848133221268654,0.9999570846557617,-0.0016786850756034255,1780982803686007026
1780982803789013559,-2.0350730665086303e-6,-0.005430511198937893,-0.000018846532839233987,-0.013557364232838154,1.0000455379486084,0.0030642393976449966,1780982803786400866
1780982803889535849,1.9327035261085257e-6,0.00510421022772789,0.000018733144315774553,0.014627047814428806,0.9999531507492065,-0.003188316011801362,1780982803886009335
1780982803989446273,-1.998710558837047e-6,-0.005333392880856991,-0.000018775441276375204,-0.013686016201972961,1.0000461339950562,0.0029792427085340023,1780982803986837601
1780982804089357567,1.8731351474343683e-6,0.0049463133327662945,0.000018295806512469426,0.014097940176725388,0.9999547004699707,-0.002871890552341938,1780982804087426853
1780982804189448585,1.8421349068376003e-6,0.0048640333116054535,0.000018374641513219103,0.013503281399607658,0.9999561309814453,-0.0025618260260671377,1780982804168615912
1780982804289737354,1.8357441149419174e-6,0.004847278818488121,0.00001821867590479087,0.014335733838379383,0.9999537467956543,-0.0027622308116406202,1780982804288082725
1780982804389976484,1.8361168940828065e-6,0.00484846206381917,0.000018185677618021145,0.014498135074973106,0.9999533295631409,-0.002795794978737831,1780982804368157019
1780982804489406509,-1.9190342754882295e-6,-0.005122196860611439,-0.000018119952073902823,-0.014070979319512844,1.0000487565994263,0.0027539103757590055,1780982804468715805
1780982804589974203,-1.9212345705454936e-6,-0.005127418786287308,-0.000018049904610961676,-0.01333707943558693,1.000044822692871,0.002631031908094883,1780982804589922829
1780982804689301196,-1.8079423398376093e-6,-0.004831674043089151,7.645458936167415e-6,-0.012665705755352974,1.0000191926956177,0.002722053322941065,1780982804670510188
1780982804789652912,1.8384879467703286e-6,0.004856069106608629,0.00001801307917048689,0.013644634746015072,0.9999566674232483,-0.0026378086768090725,1780982804769953564
1780982804889250371,-1.9235794752603397e-6,-0.005132121033966541,-0.000017942918930202723,-0.012979652732610703,1.0000433921813965,0.0025663485284894705,1780982804870559480
1780982804989075288,1.8393968730379129e-6,0.004859894048422575,0.000018005257516051643,0.014790544286370277,0.999953031539917,-0.002866098890081048,1780982804970418133
1780982805089401890,-1.9258636712038424e-6,-0.0051364596001803875,-0.000017953689166461118,-0.013242539018392563,1.0000442266464233,0.0026218059938400984,1780982805070829553
1780982805189165389,1.840269533204264e-6,0.004863901529461145,0.000018020997231360525,0.014059148728847504,0.999955415725708,-0.002726856851950288,1780982805171553538
1780982805290011853,-1.928264282469172e-6,-0.005140908528119326,-0.00001796489959815517,-0.012660134583711624,1.0000423192977905,0.002510888734832406,1780982805272139557
1780982805389304783,1.841197786234261e-6,0.004868377931416035,0.000018028820704785176,0.014043389819562435,0.9999554753303528,-0.0027270920109003782,1780982805372393308
1780982805489578062,-1.9308654373162426e-6,-0.0051455143839120865,-0.00001797362529032398,-0.013073855079710484,1.0000436305999756,0.0025957156904041767,1780982805472759294
1780982805589835011,1.8420111018713214e-6,0.00487276678904891,0.000018033928427030332,0.013743488118052483,0.999956488609314,-0.002671238500624895,1780982805573690523
1780982805690015144,-1.933557314259815e-6,-0.0051502264104783535,-0.00001800734389689751,-0.013145215809345245,1.0000438690185547,0.0026124652940779924,1780982805674103676
1780982805789834055,1.8425881762595964e-6,0.004876728635281324,0.00001804375096980948,0.014120984822511673,0.9999552369117737,-0.00274833501316607,1780982805775095186
1780982805889354516,-1.9378251181478845e-6,-0.0051516941748559475,-0.0000181607229023939,-0.012959309853613377,1.0000433921813965,0.0024239763151854277,1780982805875645287
1780982805989804146,1.8444304714648752e-6,0.004886426962912083,0.000018008648112299852,0.01394166611135006,0.9999557733535767,-0.002718237228691578,1780982805976077716
1780982806089389914,-1.937807837748551e-6,-0.00515550933778286,-0.000018135939171770588,-0.013056561350822449,1.0000436305999756,0.0025993511080741882,1780982806076594609
1780982806189790045,1.8401467514195247e-6,0.0048750839196145535,0.00001798113589757122,0.013668444007635117,0.9999567270278931,-0.002659778343513608,1780982806177135100
1780982806289994031,-1.934381771206972e-6,-0.005146470386534929,-0.00001803714803827461,-0.012720554135739803,1.00004243850708,0.0025291466154158115,1780982806278197420
1780982806389441092,1.8375128547631903e-6,0.0048683141358196735,0.00001796649485186208,0.014283326454460621,0.9999547600746155,-0.002777860267087817,1780982806378774213
1780982806489185238,-1.9318697468406754e-6,-0.005139755550771952,-0.000017914011550601572,-0.013519450090825558,1.0000447034835815,0.002684331266209483,1780982806479529374
1780982806589763842,1.8353483710598084e-6,0.004862658679485321,0.000017813035810831934,0.013547083362936974,0.9999578595161438,-0.0026322840712964535,1780982806580732035
1780982806689716203,-1.9299989162391284e-6,-0.005134676117449999,-0.00001774857628333848,-0.013041775673627853,1.00004243850708,0.0025897796731442213,1780982806680845421
1780982806790093196,1.8336528455620282e-6,0.004858338739722967,0.00001766084460541606,0.013918311335146427,0.9999573826789856,-0.0027044687885791063,1780982806781241806
1780982806889821230,-1.9285841972305207e-6,-0.005130722653120756,-0.000017632995877647772,-0.013240081258118153,1.00004243850708,0.002628440037369728,1780982806882080128
1780982806989783806,1.8322824644201319e-6,0.004854624625295401,0.000017598462363821454,0.013968435116112232,0.9999577403068542,-0.002714229514822364,1780982806983688337
1780982807089703108,-2.026549054789939e-6,-0.005396196153014898,-3.504072992654983e-6,-0.012553887441754341,1.0000102519989014,0.0019078794866800308,1780982807083870306
1780982807189341695,1.8442015061737038e-6,0.004885033238679171,0.000018457900296198204,0.013261675834655762,0.9999573230743408,-0.0025864453054964542,1780982807185642441
1780982807289405781,-1.9423675894358894e-6,-0.005167860072106123,-0.00001850571970862802,-0.013111859560012817,1.0000447034835815,0.002614274388179183,1780982807284812713
1780982807389796634,1.8437511926094885e-6,0.0048855142667889595,0.000018564660422271118,0.013699757866561413,0.9999557137489319,-0.0026729691307991743,1780982807386008190
1780982807489788659,-1.9429348867561202e-6,-0.005167590454220772,-0.000018468410416971892,-0.012440678663551807,1.0000423192977905,0.002482195384800434,1780982807486872721
1780982807589655576,1.8427074337523663e-6,0.004884122870862484,0.000018469037968316115,0.013676035217940807,0.9999558925628662,-0.0026670251972973347,1780982807586839997
1780982807689793747,-1.9475221506581875e-6,-0.00517818471416831,-0.00001846857776399702,-0.01310641784220934,1.000042200088501,0.002527498872950673,1780982807687824300
1780982807789184498,1.8415837530483259e-6,0.00488271564245224,0.000018457458281773143,0.013975713402032852,0.9999549388885498,-0.002725397702306509,1780982807787438680
1780982807889033096,-1.9414212601986947e-6,-0.005160835571587086,-0.00001844969483499881,-0.012966452166438103,1.0000441074371338,0.0025809332728385925,1780982807888461470
1780982807989023668,-1.9425892787694465e-6,-0.00516457250341773,-0.00001846536724769976,-0.014047542586922646,1.0000519752502441,0.00294251530431211,1780982807969215522
1780982808089142705,1.8452564063409227e-6,0.004892833065241575,0.000018481519873603247,0.014088694006204605,0.9999545812606812,-0.0027571329846978188,1780982808069302042
1780982808189410651,-1.947147893588408e-6,-0.005175401922315359,-0.00001847401108534541,-0.013973201625049114,1.0000473260879517,0.0027932478114962578,1780982808170780658
1780982808289784136,1.9210610844311304e-6,0.005092036444693804,0.000027900730856345035,0.012782539241015911,0.9999483227729797,-0.0012111370451748371,1780982808271081727
1780982808389093774,-2.0635081909858854e-6,-0.005482726264744997,-0.00001904521559481509,-0.013597444631159306,1.0000455379486084,0.0031187967397272587,1780982808371447551
1780982808489537529,1.9385854557185667e-6,0.005142594687640667,0.000018853048459277488,0.014760483056306839,0.999953031539917,-0.00325073953717947,1780982808471718592
1780982808589055991,-2.0178299564577173e-6,-0.005360251292586327,-0.000018852389985113405,-0.01340715866535902,1.000044822692871,0.0029357224702835083,1780982808573209994
1780982808689773310,1.8689180478759226e-6,0.004958446137607098,0.000018023009033640847,0.01219111680984497,0.9999624490737915,-0.002481638453900814,1780982808678038162
1780982808789965104,-1.9469005110295257e-6,-0.0051718964241445065,-0.00001789897032722365,-0.014592999592423439,1.000046730041504,0.0029228664934635162,1780982808776222035
1780982808889951912,1.8439526456859312e-6,0.004893240053206682,0.000017758311514626257,0.013519683852791786,0.999959409236908,-0.002650992479175329,1780982808876127130
1780982808989914121,-1.947473265317967e-6,-0.005172254052013159,-0.000017719645256875083,-0.013922369107604027,1.0000439882278442,0.0027899101842194796,1780982808976198848
1780982809089388002,1.8441166957927635e-6,0.0048949443735182285,0.000017747579477145337,0.01379968598484993,0.9999585151672363,-0.002707268111407757,1780982809076713160
1780982809189684201,-1.948490989889251e-6,-0.005173443350940943,-0.00001771259485394694,-0.013352369889616966,1.00004243850708,0.002677562413737178,1780982809177002962
1780982809289954628,1.8442706277710386e-6,0.004896842874586582,0.000017762215065886267,0.01353750191628933,0.9999591112136841,-0.002655960386618972,1780982809278287095
1780982809389946390,-1.9497331322781974e-6,-0.00517505407333374,-0.000017725413272273727,-0.01332888100296259,1.00004243850708,0.0026733833365142345,1780982809379242417
1780982809489811890,1.8444278566676076e-6,0.0048988875932991505,0.000017785689124139026,0.013601231388747692,0.9999588131904602,-0.0026689209043979645,1780982809479880720
1780982809589944805,-1.951089870999567e-6,-0.005176815204322338,-0.000017778716937755235,-0.01216701976954937,1.0000391006469727,0.0024428616743534803,1780982809581009583
1780982809689141552,1.844305529630219e-6,0.004900512285530567,0.00001784362757462077,0.014003296382725239,0.999957263469696,-0.0027481510769575834,1780982809680303463
1780982809789692909,-1.952362026713672e-6,-0.005178115330636501,-0.00001785445238056127,-0.013008004985749722,1.0000420808792114,0.002608649665489793,1780982809780858285
1780982809890205113,1.8437159496897948e-6,0.004901010077446699,0.000017959608157980256,0.013916471973061562,0.9999571442604065,-0.0027297157794237137,1780982809881232396
1780982809989083714,-1.953331548065762e-6,-0.005178500898182392,-0.000017941441910807043,-0.014231613837182522,1.0000463724136353,0.0028491367120295763,1780982809982560208
1780982810089807728,1.8455457393429242e-6,0.004909405950456858,0.00001833317401178647,0.014051247388124466,0.9999554753303528,-0.002755593741312623,1780982810082902719
1780982810189924603,-1.9611375137174036e-6,-0.005193983670324087,-0.000018240536519442685,-0.011886999942362309,1.0000399351119995,0.0023840160574764013,1780982810185114913
1780982810289575438,1.8427077748128795e-6,0.004909280221909285,0.00001845003862399608,0.013620601035654545,0.9999474287033081,-0.0030418136157095432,1780982810283754523
1780982810389666653,-1.9562164652597858e-6,-0.005174117628484964,-0.00001835924558690749,-0.01285303570330143,1.0000431537628174,0.0024193504359573126,1780982810384816101
1780982810489575188,1.8430046111461706e-6,0.004909399431198835,0.000018221788195660338,0.013974636793136597,0.9999566674232483,-0.002698655007407069,1780982810484714736
1780982810589840417,-1.956403821168351e-6,-0.005177322309464216,-0.00001832741327234544,-0.013177162036299706,1.0000441074371338,0.0026224618777632713,1780982810586024379
1780982810689807224,1.8358201714363531e-6,0.004890423733741045,0.000018150944015360437,0.013938008807599545,0.9999557137489319,-0.0027074129320681095,1780982810686087956
1780982810789600806,-1.9495714695949573e-6,-0.00515919690951705,-0.0000181866289494792,-0.011489772237837315,1.000038504600525,0.0022776538971811533,1780982810789434054
1780982810889447935,1.8298343320566346e-6,0.004874769598245621,0.000018087404896505177,0.013579991646111012,0.9999569654464722,-0.0026237107813358307,1780982810887588961
1780982810988878651,-1.943257984748925e-6,-0.005142558831721544,-0.000018115462808054872,-0.013197096064686775,1.0000441074371338,0.002598946448415518,1780982810988523674
1780982811089105569,1.8241477164337994e-6,0.004859647247940302,0.00001803013583412394,0.014225088991224766,0.9999549388885498,-0.002737049711868167,1780982811088878276
1780982811189902826,1.8219041066913633e-6,0.0048536029644310474,0.00001803194209060166,0.014385011978447437,0.9999544024467468,-0.0027632461860775948,1780982811170201835
1780982811289837773,-1.9348219666426303e-6,-0.005120616871863604,-0.000018032345906249247,-0.012147583067417145,1.0000406503677368,0.002379557117819786,1780982811272087199
1780982811389662695,1.816758640416083e-6,0.004839648026973009,0.00001800405152607709,0.013864166103303432,0.9999560713768005,-0.002651875838637352,1780982811371082494
1780982811489889451,-1.9291167063784087e-6,-0.005105822347104549,-0.000017769763871910982,-0.013176207430660725,1.0000431537628174,0.0025697844102978706,1780982811472214695
1780982811589760381,1.8118848856829572e-6,0.004826427437365055,0.000017433545508538373,0.013901895843446255,0.9999582767486572,-0.002652878640219569,1780982811573004573
1780982811689559933,-1.9234685169067234e-6,-0.005090898368507624,-0.00001708412128209602,-0.013450639322400093,1.000040888786316,0.0026185002643615007,1780982811673808104
1780982811789142928,1.807488388294587e-6,0.00481448182836175,0.00001677126419963315,0.013621880672872066,0.9999620914459229,-0.002595355035737157,1780982811775152681
1780982811889974531,-1.9188598798791645e-6,-0.005078806076198816,-0.000016494954252266325,-0.012572696432471275,1.0000355243682861,0.002445558551698923,1780982811875173006
1780982811989733230,1.803794134502823e-6,0.0048044100403785706,0.000016509025954292156,0.013176318258047104,0.999964714050293,-0.002505701733753085,1780982811977005879
1780982812089541635,-1.9155295376549475e-6,-0.00507008470594883,-0.000016583624528720975,-0.013121386989951134,1.000037431716919,0.002547402633354068,1780982812076827701
1780982812189944068,1.8005106312557473e-6,0.004795687273144722,0.000016625233911327086,0.014312874525785446,0.9999611377716064,-0.0027208919636905193,1780982812176283319
1780982812289134318,-1.912713514684583e-6,-0.0050626713782548904,-0.000016635693100397475,-0.012263212352991104,1.0000351667404175,0.0023797419853508472,1780982812278439470
1780982812389046012,1.7979875792661915e-6,0.0047890739515423775,0.000016681769920978695,0.014181162230670452,0.9999614357948303,-0.002693111775442958,1780982812377266561
1780982812489090380,-1.911292429213063e-6,-0.00505850138142705,-0.000016658848835504614,-0.013354924507439137,1.0000382661819458,0.0025877614971250296,1780982812478164585
1780982812589622718,1.9382077880436555e-6,0.005087604746222496,7.753945283184294e-6,0.01472405344247818,0.9999529719352722,-0.0025767909828573465,1780982812577987836
1780982812689317355,-1.844044618337648e-6,-0.004841041285544634,-0.00001988338044611737,-0.013226587325334549,1.0000474452972412,0.0020207378547638655,1780982812678538516
1780982812790031360,2.0335671706561698e-6,0.005399835761636496,0.000011578650628507603,0.015236531384289265,0.9999527931213379,-0.0030684059020131826,1780982812779286590
1780982812889727548,-2.3247819171956507e-6,-0.006083577871322632,0.000010287993063684553,-0.015053466893732548,1.0000309944152832,0.002798939123749733,1780982812879851236
1780982812990116820,1.9249125671194633e-6,0.005180201958864927,0.000016829779269755818,0.014589325524866581,0.9999691247940063,-0.0027963619213551283,1780982812982303942
1780982813089559481,-1.7890324670588598e-6,-0.004687344655394554,-0.000014352828657138161,-0.013592146337032318,1.000000238418579,0.002136782044544816,1780982813080746338
1780982813189483900,1.9717076611414086e-6,0.005302311386913061,0.00001714931750029791,0.014363337308168411,0.9999697208404541,-0.0029101544059813023,1780982813182604326
1780982813289326510,-2.068248022624175e-6,-0.005441234912723303,-0.000015189805708359927,-0.013856946490705013,1.0000286102294922,0.002995589980855584,1780982813282454657
1780982813389707336,1.9045675117013161e-6,0.0051051960326731205,0.00001505351610830985,0.01401176955550909,0.9999724626541138,-0.002895299345254898,1780982813383650588
1780982813489915311,-2.0053705611644546e-6,-0.005280451383441687,-0.000014956322957004886,-0.013559305109083652,1.0000280141830444,0.0027617388404905796,1780982813484241000
1780982813589797503,1.8305715911992593e-6,0.00490286061540246,0.000014777359865547623,0.01470834668725729,0.9999708533287048,-0.002711247419938445,1780982813585135907
1780982813689930018,-1.950111027326784e-6,-0.005139701999723911,-0.000014590766113542486,-0.013898847624659538,1.0000287294387817,0.0026472716126590967,1780982813686243875
1780982813789111298,1.8220727042717044e-6,0.004874079488217831,0.000014662654393760022,0.012768578715622425,0.9999749064445496,-0.0023834833409637213,1780982813788464710
1780982813889407417,-1.9442170469119446e-6,-0.005129752214998007,-0.000014557633221556898,-0.013036323711276054,1.0000269412994385,0.0024866326712071896,1780982813887565801
1780982813989856340,1.856840412983729e-6,0.004959974903613329,0.000014895736967446283,0.014124675653874874,0.9999746680259705,-0.002697780029848218,1780982813987957164
1780982814089138640,-1.9795959360635607e-6,-0.005228638183325529,-0.00001490555951022543,-0.013035331852734089,1.0000271797180176,0.0025698747485876083,1780982814088913982
1780982814189529130,1.8569934354673023e-6,0.004955353680998087,0.000014913776794855949,0.014506855048239231,0.9999712109565735,-0.0028022148180752993,1780982814189277751
1780982814289501403,1.8562918739917222e-6,0.004951589275151491,0.000014897023902449291,0.014583506621420383,0.9999710321426392,-0.00281843775883317,1780982814269751916
1780982814389175317,-1.9719393549166853e-6,-0.005214593838900328,-0.000014770666894037277,-0.013411497697234154,1.0000278949737549,0.0026473836041986942,1780982814370532914
1780982814490044721,1.8557122984930174e-6,0.004945657216012478,0.00001477307432651287,0.014328798279166222,0.9999716877937317,-0.0027713743038475513,1780982814471200672
1780982814589496542,-1.9678709577419795e-6,-0.005207585636526346,-0.000014691028809465934,-0.013146702200174332,1.0000271797180176,0.002598376478999853,1780982814571809503
1780982814689565687,1.8551993434812175e-6,0.004940368700772524,0.000014698974155180622,0.014120572246611118,0.9999721646308899,-0.0027332392055541277,1780982814672946926
1780982814789078596,-1.9643077848741086e-6,-0.005201536230742931,-0.000014632588317908812,-0.013316216878592968,1.0000275373458862,0.00263396929949522,1780982814774378392
1780982814889710518,1.8587976455819444e-6,0.004946650471538305,0.000014717624253535178,0.013199836015701294,0.9999740719795227,-0.0025571933947503567,1780982814875061759
1780982814989275314,-1.9683845948748058e-6,-0.005214727949351072,-0.000014640563676948659,-0.0133464140817523,1.0000276565551758,0.0026447600685060024,1780982814974515174
1780982815089783254,1.862363774307596e-6,0.0049535916186869144,0.000014720790204592049,0.013768528588116169,0.9999728798866272,-0.0026725842617452145,1780982815074984161
1780982815189090024,-1.9700548818946118e-6,-0.005221057217568159,-0.000014674880731035955,-0.013105947524309158,1.0000271797180176,0.002601064508780837,1780982815175328359
1780982815289627633,1.8649592448127805e-6,0.004958691541105509,0.000014738641766598448,0.014162292703986168,0.9999721646308899,-0.0027531299274414778,1780982815275997958
1780982815389307162,-1.9714161680894904e-6,-0.005226123612374067,-0.000014642046153312549,-0.012909287586808205,1.0000264644622803,0.0025664791464805603,1780982815378644647
1780982815489285017,1.8669851442609797e-6,0.0049630459398031235,0.000014692313925479539,0.014260835014283657,0.9999723434448242,-0.002777348505333066,1780982815477416693
1780982815589174486,-1.972804057004396e-6,-0.0052307588048279285,-0.000014604181160393637,-0.013480685651302338,1.0000272989273071,0.002683226717635989,1780982815584206658
1780982815689880092,1.868533217930235e-6,0.004966546781361103,0.000014630239093094133,0.014246949926018715,0.9999727010726929,-0.002778925932943821,1780982815678247653
1780982815789372022,-1.9741441974474583e-6,-0.005234484560787678,-0.00001457941016269615,-0.01308121345937252,1.0000263452529907,0.002608520444482565,1780982815779588274
1780982815889657289,1.8694877326197457e-6,0.004968869034200907,0.000014610098332923371,0.014495929703116417,0.9999722838401794,-0.0028316467069089413,1780982815879634683
1780982815989742089,-1.9752365005842876e-6,-0.005237178411334753,-0.000014548851140716579,-0.013297312892973423,1.0000267028808594,0.002654304727911949,1780982815980869561
1780982816089815550,1.8700072814681334e-6,0.004970343317836523,0.000014586808902095072,0.014074900187551975,0.9999731779098511,-0.0027512595988810062,1780982816080954270
1780982816189926726,-1.975956365640741e-6,-0.005238547921180725,-0.0000145150042953901,-0.012833035551011562,1.000025749206543,0.0025648451410233974,1780982816182063961
1780982816289704151,1.8701008457355783e-6,0.004970936104655266,0.000014546535567205865,0.014381006360054016,0.9999727606773376,-0.0028131073340773582,1780982816281852752
1780982816389829965,-1.976566409211955e-6,-0.005239627789705992,-0.00001452036030968884,-0.013116207905113697,1.0000262260437012,0.0026209631469100714,1780982816383059285
1780982816489389175,1.8700733335208497e-6,0.004971255082637072,0.000014581413779524155,0.013862558640539646,0.9999735951423645,-0.0027096339035779238,1780982816483334406
1780982816589826823,-1.9766180230362806e-6,-0.005239221733063459,-0.000014550143532687798,-0.013923734426498413,1.0000278949737549,0.002778679598122835,1780982816585005759
1780982816689317310,1.8630577187650488e-6,0.004957247991114855,0.000014677385479444638,0.015193946659564972,0.9999712109565735,-0.0027257916517555714,1780982816684575825
1780982816789816482,-1.9833405531244352e-6,-0.005254564806818962,-0.000014689396266476251,-0.012384534813463688,1.0000247955322266,0.002470388077199459,1780982816786921251
1780982816889801852,1.8713135432335548e-6,0.004976116586476564,0.00001454914945497876,0.01420152559876442,0.9999728798866272,-0.0027714530006051064,1780982816885852073
1780982816989955560,-2.0447650967980735e-6,-0.005398884415626526,-0.000013720404240302742,-0.0142453508451581,1.000032901763916,0.0027091556694358587,1780982816987152748
1780982817089193288,-2.0478696569625754e-6,-0.005399087909609079,-0.000015749978047097102,-0.014095439575612545,1.0000309944152832,0.002669739304110408,1780982817069304091
1780982817189053764,-2.0476784357015276e-6,-0.005397291388362646,-0.000016402011169702746,-0.013839487917721272,1.0000314712524414,0.0025695976801216602,1780982817188674588
1780982817289071653,-2.049592694675084e-6,-0.005401769652962685,-0.00001644055919314269,-0.013112262822687626,1.0000278949737549,0.002469918690621853,1780982817270451172
1780982817389323401,1.9055310076510068e-6,0.0050963591784238815,0.000016379946828237735,0.014696387574076653,0.9999702572822571,-0.0027072355151176453,1780982817369611586
1780982817489796554,-2.0510190097411396e-6,-0.005404601339250803,-0.000016441726984339766,-0.014843600802123547,1.0000313520431519,0.0027754302136600018,1780982817470017718
1780982817589068191,1.991164026549086e-6,0.00522244069725275,0.000013931294233771041,0.021068139001727104,0.999932587146759,-0.003806800814345479,1780982817570397361
1780982817689901416,-2.094211367875687e-6,-0.005478522274643183,-7.656811249034945e-6,-0.014484411105513573,1.000046968460083,0.002665161620825529,1780982817670744693
1780982817789892235,1.9436358797975117e-6,0.005204819142818451,8.068337592703756e-6,0.015091572888195515,0.9999544620513916,-0.002728852443397045,1780982817772963973
1780982817889106943,-2.08629239750735e-6,-0.0054577733390033245,-0.000012492559108068235,-0.013954764232039452,1.0000444650650024,0.0025690672919154167,1780982817872575859
1780982817989745320,1.934472948050825e-6,0.005188313778489828,7.943587661429774e-6,0.014638399705290794,0.9999555349349976,-0.0026456862688064575,1780982817973055864
1780982818089421373,-2.085694177367259e-6,-0.0054577975533902645,-0.000012865742064605001,-0.01494624838232994,1.0000492334365845,0.0027399216778576374,1780982818073722348
1780982818189048244,1.927470748341875e-6,0.00517505407333374,0.000013450696314976085,0.01466356497257948,0.9999535083770752,-0.002641662722453475,1780982818174333746
1780982818289332697,-2.086603899442707e-6,-0.0054570147767663,-0.000013938343727204483,-0.014459991827607155,1.0000485181808472,0.002647761721163988,1780982818274556123
1780982818389585705,1.9237829746998614e-6,0.0051679289899766445,0.000014242277757148258,0.014483321458101273,0.9999533295631409,-0.002604830078780651,1780982818376623837
1780982818489943547,-2.0872448658337817e-6,-0.005455677397549152,-0.000014059334716876037,-0.01395877543836832,1.0000476837158203,0.0025648637674748898,1780982818476276590
1780982818589261498,1.9222204628022155e-6,0.0051662502810359,0.000014224111509975046,0.014406096190214157,0.9999538064002991,-0.0025888090021908283,1780982818577475788
1780982818689033650,-2.0874001620541094e-6,-0.005453128833323717,-0.000014620125512010418,-0.014122088439762592,1.0000479221343994,0.0025806636549532413,1780982818678404598
1780982818789259004,1.91823937711888e-6,0.005158331245183945,0.000015080398043210153,0.014820259995758533,0.9999518990516663,-0.0026606135070323944,1780982818778328878
1780982818889546007,-2.190717623307137e-6,-0.005716068670153618,0.000012721876373689156,-0.015064532868564129,1.00002920627594,0.0023979160469025373,1780982818878828504
1780982818989855671,2.0171974028926343e-6,0.005384428892284632,0.000012198795957374386,0.017189905047416687,0.9999708533287048,-0.002655487274751067,1780982818980048821
1780982819089478679,-2.184258619308821e-6,-0.005684738978743553,-0.000010094252502312884,-0.014918852597475052,1.0000258684158325,0.00236579030752182,1780982819080849330
1780982819189382882,2.000916538236197e-6,0.005337821319699287,7.084186108841095e-6,0.015001003630459309,0.999976396560669,-0.0023617995902895927,1780982819181586329
1780982819289263045,-2.161220891139237e-6,-0.005631498526781797,-0.000012520138625404797,-0.014323510229587555,1.0000237226486206,0.0022910009138286114,1780982819281570970
1780982819389311922,1.9827041342068696e-6,0.005297517869621515,6.982218565099174e-6,0.015540633350610733,0.9999725818634033,-0.0024581581819802523,1780982819382693604
1780982819489040533,-2.1418034066300606e-6,-0.00558891799300909,-0.000012771537512890063,-0.014539825730025768,1.0000293254852295,0.002331649186089635,1780982819482408955
1780982819589118929,1.9701892597367987e-6,0.005272490903735161,7.864014150982257e-6,0.01473444327712059,0.9999696016311646,-0.0023317276500165462,1780982819584189569
1780982819689900912,-2.128540700141457e-6,-0.005561000667512417,-0.000012106267604394816,-0.01533993799239397,1.0000349283218384,0.002456649672240019,1780982819685118999
1780982819789735723,1.960582039828296e-6,0.005252544768154621,8.756161150813568e-6,0.014530708082020283,0.9999669790267944,-0.0022954586893320084,1780982819786696417
1780982819889156029,-2.116829591614078e-6,-0.005535103380680084,-0.000011733506653399672,-0.015055679716169834,1.000037431716919,0.0024042280856519938,1780982819885211317
1780982819989603049,1.956119604074047e-6,0.005244191735982895,9.612642315914854e-6,0.015372500754892826,0.9999623894691467,-0.0024217343889176846,1780982819984798883
1780982820089856806,-2.113464915964869e-6,-0.005529673304408789,-0.000011306953638268169,-0.013546624220907688,1.0000356435775757,0.002156417118385434,1780982820087196654
1780982820189700845,1.9495089418342104e-6,0.005228589288890362,9.797867278393824e-6,0.015872297808527946,0.9999592304229736,-0.0024873812217265368,1780982820186949467
1780982820289644558,-2.1035521058365703e-6,-0.005506264045834541,-0.00001117591637012083,-0.015042481943964958,1.0000410079956055,0.0023760790936648846,1780982820286724897
1780982820388987817,1.9413148493185872e-6,0.005208178423345089,0.000011162541341036558,0.01425805501639843,0.9999623894691467,-0.002215602668002248,1780982820388446974
1780982820489014057,-2.0955628770025214e-6,-0.005486564710736275,-0.000011517983693920542,-0.01435613539069891,1.00003981590271,0.0022442650515586138,1780982820488536512
1780982820589609216,-2.0921090708725387e-6,-0.00547775300219655,-0.000011750285921152681,-0.01456387247890234,1.0000405311584473,0.0022671245969831944,1780982820568844791
1780982820689740644,1.929377503984142e-6,0.005175740923732519,0.000011894776434928644,0.014541652984917164,0.999961256980896,-0.0022275473456829786,1780982820671031752
1780982820789057029,-2.0781503735634033e-6,-0.005441561341285706,-0.000011912825357285328,-0.014350518584251404,1.0000402927398682,0.0022063597571104765,1780982820770398698
1780982820889846916,1.9249721390224295e-6,0.005163293331861496,0.00001150815933215199,0.0141864949837327,0.9999623894691467,-0.002154398011043668,1780982820872730922
1780982820989808720,-2.0804420728381956e-6,-0.005448524374514818,-0.000010945236681436654,-0.01836385764181614,1.00005042552948,0.002820654073730111,1780982820975656130
1780982821089512845,1.9283600067865336e-6,0.005171334370970726,0.000010514367204450537,0.014109955169260502,0.9999631643295288,-0.0021459986455738544,1780982821076671831
1780982821189039267,-2.081492311845068e-6,-0.005452149081975222,-9.997171218856238e-6,-0.013722161762416363,1.0000371932983398,0.0021121457684785128,1780982821176313259
1780982821289505704,1.9316753423481714e-6,0.0051783183589577675,0.000010782538993225899,0.015114469453692436,0.9999616146087646,-0.0023006030824035406,1780982821274730219
1780982821389401995,-2.084669404212036e-6,-0.005460266023874283,-9.559973477735184e-6,-0.015314399264752865,1.00003981590271,0.002355146687477827,1780982821375611274
1780982821489135993,1.93735081666091e-6,0.005193350836634636,0.000012805837286578026,0.014048365876078606,0.9999544024467468,-0.002176510402932763,1780982821476389448
1780982821589297643,-2.0992595182178775e-6,-0.0054981037974357605,-8.036248800635803e-6,-0.01460188440978527,1.0000354051589966,0.0022381264716386795,1780982821576407171
1780982821689203179,1.5307166449929355e-6,0.004117825999855995,0.00005621109448838979,0.013653898611664772,0.9999225735664368,-0.0010599280940368772,1780982821677606956
1780982821789648162,-2.2649251150141936e-6,-0.005928359925746918,-1.0546013982093427e-6,-0.014704165980219841,1.0000240802764893,0.0027097214478999376,1780982821778933960
1780982821889399661,2.1047326299594715e-6,0.005613862071186304,0.000017652166206971742,0.01570223830640316,0.9999761581420898,-0.0028279093094170094,1780982821879737786
1780982821989404696,-2.260725068481406e-6,-0.0059076398611068726,-5.0955200094904285e-6,-0.014679369516670704,1.0000241994857788,0.0025894762948155403,1780982821980797100
1780982822089583917,2.080960939565557e-6,0.005535888951271772,0.000010082073458761442,0.016045594587922096,0.9999746084213257,-0.0027076273690909147,1780982822081744957
1780982822189224908,-2.223516275989823e-6,-0.005810450296849012,-6.0598081290663686e-6,-0.014862961135804653,1.0000241994857788,0.0024426523596048355,1780982822181463110
1780982822289814471,1.9870778942276957e-6,0.005284860730171204,9.917785973811988e-6,0.015240412205457687,0.9999746084213257,-0.0022456732112914324,1780982822281884563
1780982822389344785,-2.272898655064637e-6,-0.00592810707166791,0.000010904835107794497,-0.016514522954821587,1.000040888786316,0.001996538368985057,1780982822381520429
1780982822489962995,2.0821426005568355e-6,0.005517347250133753,9.08323454495985e-6,0.01670769415795803,0.9999589323997498,-0.0020420358050614595,1780982822482284787
1780982822589456413,-2.2577662548428634e-6,-0.005886271595954895,-0.000012853247426392045,-0.01517349760979414,1.0000377893447876,0.0018606041558086872,1780982822583615640
1780982822689732187,1.934109832291142e-6,0.0051407054997980595,-0.000018875314708566293,0.015658291056752205,0.9999732375144958,-0.0022596835624426603,1780982822685047392
1780982822789722341,-2.0979246073693503e-6,-0.005516675766557455,-0.000019121212972095236,-0.014742191880941391,1.0000370740890503,0.0021058053243905306,1780982822783972336
1780982822889776411,1.930212647494045e-6,0.00516070332378149,0.000018789840396493673,0.015247013419866562,0.9999639987945557,-0.0021775965578854084,1780982822883923594
1780982822989710921,-2.093846205752925e-6,-0.005509517155587673,-0.00001889498707896564,-0.01463084202259779,1.0000362396240234,0.0021096672862768173,1780982822984690923
1780982823089157697,1.9292870092613157e-6,0.005155406892299652,0.000018873895896831527,0.01494333054870367,0.9999644756317139,-0.0021406279411166906,1780982823085308700
1780982823189054006,-2.0909535578539362e-6,-0.005505063571035862,-0.000018952152458950877,-0.014591429382562637,1.000036358833313,0.0021106149069964886,1780982823185341780
1780982823289122432,1.9282690573163563e-6,0.005150150042027235,0.000018962971807923168,0.016061164438724518,0.9999615550041199,-0.0023076238576322794,1780982823287273972
1780982823389581099,-1.816978738133912e-6,-0.004781800322234631,-0.00001841252924350556,-0.015272165648639202,1.000049114227295,0.0022593119647353888,1780982823389165681
1780982823489912954,1.9416038412600756e-6,0.005183206405490637,0.000019069817426498048,0.014847803860902786,0.9999646544456482,-0.00217615207657218,1780982823489749179
1780982823589696792,1.9418434931139927e-6,0.005182954017072916,0.000019101298676105216,0.013222073204815388,0.9999686479568481,-0.0019416440045461059,1780982823576597573
1780982823689690751,-2.10394182431628e-6,-0.005546052008867264,-0.000019159737348672934,-0.01396293193101883,1.0000348091125488,0.0020766500383615494,1780982823675885279
1780982823789138379,1.9424480797169963e-6,0.005182445514947176,0.00001920100476127118,0.013831015676259995,0.9999672174453735,-0.0020406986586749554,1780982823772344317
1780982823888991131,-2.104133272951003e-6,-0.005549016408622265,-0.000019263450667494908,-0.013828773982822895,1.0000344514846802,0.002065449021756649,1780982823872009114
1780982823989701507,1.943538563864422e-6,0.005183326546102762,0.000019174445696990006,0.01660759374499321,0.9999608397483826,-0.0024614930152893066,1780982823970060419
1780982824089135694,-2.103034830724937e-6,-0.005548399873077869,-0.00001880465424619615,-0.01750659942626953,1.0000425577163696,0.0026238232385367155,1780982824078461097
1780982824189053270,1.945665871971869e-6,0.005187192466109991,0.00001811725269362796,0.016966482624411583,0.9999607801437378,-0.0025233386550098658,1780982824183270168
1780982824289363929,-2.0993625184928533e-6,-0.005540669895708561,-0.00001754778168105986,-0.014856855385005474,1.0000356435775757,0.0022349595092236996,1780982824278689631
1780982824389448797,1.9470223833195632e-6,0.005189158953726292,0.000016993790268315934,0.015374177135527134,0.9999649524688721,-0.002291978569701314,1780982824379555823
1780982824489706329,-2.0959741959813982e-6,-0.005533578339964151,-0.00001651102866162546,-0.014486370608210564,1.0000344514846802,0.0021854499354958534,1780982824480043344
1780982824589585161,1.9477733985695522e-6,0.005189687944948673,0.000015994701243471354,0.014168305322527885,0.9999679923057556,-0.002116740681231022,1780982824582695982
1780982824689018441,-2.108022727043135e-6,-0.005567152518779039,-0.00001655816231505014,-0.011864401400089264,1.0000301599502563,0.0016138572245836258,1780982824686136025
1780982824789913110,1.9555586732167285e-6,0.005208819638937712,0.000013828605005983263,0.01417024340480566,0.9999690055847168,-0.002128586173057556,1780982824787118752
1780982824889237927,-2.094530600516009e-6,-0.005532850977033377,-0.000013391355423664209,-0.01301503088325262,1.0000296831130981,0.0019808902870863676,1780982824885621384
1780982824989543640,1.956724872798077e-6,0.005210665985941887,0.000012892907761852257,0.018378889188170433,0.9999602437019348,-0.002771094674244523,1780982824984934176
1780982825089767726,-2.0923771444358863e-6,-0.0055286032147705555,-0.000012327161130087916,-0.014181943610310555,1.0000317096710205,0.002163087483495474,1780982825085034833
1780982825189613729,-2.091621354338713e-6,-0.005527230445295572,-0.000011833236385427881,-0.020961560308933258,1.0000461339950562,0.0031944606453180313,1780982825165747085
1780982825289291246,1.959669589268742e-6,0.0052167694084346294,0.000011125773198727984,0.013920566998422146,0.9999710321426392,-0.002103079343214631,1780982825282188937
1780982825389697515,-2.0903498807456344e-6,-0.00552512239664793,-0.000010305335308657959,-0.014029811136424541,1.0000301599502563,0.0021489006467163563,1780982825386880436
1780982825489049461,1.9629533198894933e-6,0.005223975051194429,0.00001059799706126796,0.01561860740184784,0.9999688267707825,-0.002369097201153636,1780982825484371158
1780982825589019717,-1.8341787608733284e-6,-0.004847807809710503,-0.000022295107555692084,-0.014630836434662342,1.0000425577163696,0.0019846162758767605,1780982825586312178
1780982825689163835,-2.123044623658643e-6,-0.005611834116280079,-5.0502517296990845e-6,-0.015420467592775822,1.0000282526016235,0.002386106178164482,1780982825665157174
1780982825789055273,-2.12835493584862e-6,-0.005619722884148359,-6.624080924666487e-6,-0.014914928004145622,1.0000240802764893,0.0023173089139163494,1780982825786217730
1780982825889383091,2.0036386558786035e-6,0.005317243747413158,0.000011612002708716318,0.015368291176855564,0.999976396560669,-0.002350999042391777,1780982825887232492
1780982825988986982,-2.13624230127607e-6,-0.0056358021683990955,-8.41963537823176e-6,-0.01609419472515583,1.000025749206543,0.0024530270602554083,1780982825986376698
1780982826089398637,2.002937208089861e-6,0.0053110746666789055,9.434594176127575e-6,0.016193991526961327,0.9999750256538391,-0.0024569814559072256,1780982826086771744
1780982826189810198,-2.1269204353302484e-6,-0.005612310487776995,-0.000010763618774944916,-0.01497249212116003,1.0000241994857788,0.0023117961827665567,1780982826187120912
1780982826288980501,1.9911690287699457e-6,0.005282314959913492,8.0616910054232e-6,0.014380250126123428,0.9999778866767883,-0.002198446076363325,1780982826288234511
1780982826390017354,1.9863416582666105e-6,0.005271085072308779,7.989260666363407e-6,0.012839453294873238,0.9999803304672241,-0.0019633800256997347,1780982826372118810
1780982826489328700,1.979474973268225e-6,0.005263923201709986,0.00001227104257850442,0.014803720638155937,0.9999978542327881,-0.0017970326589420438,1780982826487589227
1780982826589129353,1.987488985832897e-6,0.005282370373606682,0.000011097185051767156,0.015524436719715595,0.9999731183052063,-0.002408563857898116,1780982826570154175
1780982826689618530,1.986499455597368e-6,0.005277868825942278,9.848532499745488e-6,0.01601731777191162,0.9999727010726929,-0.00248533021658659,1780982826689304956
1780982826789210723,1.985446260732715e-6,0.005274723283946514,9.399299415235873e-6,0.015997786074876785,0.9999725818634033,-0.002482582814991474,1780982826769374205
1780982826889567775,-2.106083684338955e-6,-0.005571331828832626,-9.991634215111844e-6,-0.014057043939828873,1.0000256299972534,0.002208414953202009,1780982826871909171
1780982826989845397,1.9825988601951394e-6,0.0052677057683467865,9.112348379858304e-6,0.015590454451739788,0.999972403049469,-0.0024209460243582726,1780982826971988061
1780982827089114601,-2.101800646414631e-6,-0.0055621773935854435,-0.000010108597962243948,-0.01446347776800394,1.0000271797180176,0.002273024758324027,1780982827072383025
1780982827189816503,1.9798853827524e-6,0.005261418409645557,9.24145570024848e-6,0.01590089686214924,0.9999709725379944,-0.002470895415171981,1780982827171128265
1780982827289131067,-2.0982088244636543e-6,-0.005554539617151022,-9.959996532415971e-6,-0.015069570392370224,1.0000289678573608,0.0023681570310145617,1780982827271403723
1780982827389610776,1.9770523067563772e-6,0.005254367832094431,9.346384103992023e-6,0.01594076119363308,0.9999703168869019,-0.002477083820849657,1780982827371953822
1780982827489150182,-2.0945724372722907e-6,-0.0055464343167841434,-9.993024832510855e-6,-0.015120863914489746,1.0000298023223877,0.002375699346885085,1780982827472552098
1780982827588987073,1.9736337435460882e-6,0.005245632492005825,9.508580660622101e-6,0.015297072939574718,0.9999709725379944,-0.0023752828128635883,1780982827574301125
1780982827689940602,-2.1551509234996047e-6,-0.005709260702133179,-8.571667422074825e-6,-0.01477572787553072,1.0000169277191162,0.002135833725333214,1780982827673342978
1780982827789333446,1.9695767150551546e-6,0.0052347551099956036,0.000010048878721136134,0.015195324085652828,0.9999707937240601,-0.0023555164225399494,1780982827774421605
1780982827889479336,-2.0498066533036763e-6,-0.00543057220056653,-0.000019249475371907465,-0.014367889612913132,1.000043272972107,0.002411057474091649,1780982827874676767
1780982827989000188,1.9184258235327434e-6,0.005101723596453667,0.000019237368178437464,0.014447435736656189,0.9999585747718811,-0.002386637730523944,1780982827976253323
1780982828089474035,-2.0447901079023723e-6,-0.005417493171989918,-0.000019198472728021443,-0.014018410816788673,1.0000423192977905,0.0023475028574466705,1780982828075849228
1780982828189750265,1.913552296173293e-6,0.005088484846055508,0.000019227098164265044,0.014683193527162075,0.9999577403068542,-0.0024198268074542284,1780982828177057141
1780982828289852971,-2.0389293240441475e-6,-0.005402118433266878,-0.000019255867300671525,-0.01400845032185316,1.0000425577163696,0.0023377465549856424,1780982828278161991
1780982828389128486,1.9069337895416538e-6,0.005070761777460575,0.000019310578863951378,0.014823240227997303,0.9999569058418274,-0.0024327721912413836,1780982828378400656
1780982828489929301,-2.0313150344009046e-6,-0.005382058210670948,-0.00001932660052261781,-0.013660124503076077,1.0000419616699219,0.0022679532412439585,1780982828479174090
1780982828589714406,1.8778036974254064e-6,0.004992911126464605,0.00001926760705828201,0.013826612383127213,0.999961793422699,-0.0018542781472206116,1780982828580766305
1780982828689754007,-2.028507651630207e-6,-0.005374680273234844,-0.00001949254328792449,-0.014327377080917358,1.0000431537628174,0.002361783292144537,1780982828679918709
1780982828789214945,1.8475961951480713e-6,0.004915598779916763,0.000018827591702574864,0.013690725900232792,0.9999545812606812,-0.002460016869008541,1780982828781572514
1780982828889253522,-1.9563481146178674e-6,-0.005184669513255358,-0.000018811952031683177,-0.013720527291297913,1.0000479221343994,0.002505538985133171,1780982828881484911
1780982828988979599,1.838611069615581e-6,0.004892038181424141,0.00001876391797850374,0.014349175617098808,0.9999523758888245,-0.0025670824106782675,1780982828982358503
1780982829089661318,-1.9480053197185043e-6,-0.005162219982594252,-0.000018718903447734192,-0.013010484166443348,1.0000455379486084,0.002364835236221552,1780982829081783750
1780982829189751738,1.8312370002604439e-6,0.004872675985097885,0.000018823031496140175,0.013747205957770348,0.9999542236328125,-0.00244731898419559,1780982829183005697
1780982829289457784,-1.9422866444074316e-6,-0.00514663802459836,-0.000018812135749612935,-0.01479208655655384,1.0000519752502441,0.002673826180398464,1780982829285687811
1780982829389643176,1.4402800161406049e-6,0.0038362822961062193,0.00006255357584450394,0.012012409046292305,0.9999116063117981,-0.0012566951336339116,1780982829384918790
1780982829489877948,-2.0642294202843914e-6,-0.005469209980219603,-0.000019627041183412075,-0.014172893948853016,1.0000499486923218,0.0029925149865448475,1780982829485217172
1780982829589231126,1.9364317722647684e-6,0.005151781719177961,0.000019680437617353164,0.014108167961239815,0.9999527931213379,-0.0028971044812351465,1780982829586400845
1780982829689266856,-2.048664555331925e-6,-0.0054273842833936214,-0.00001956857886398211,-0.01369000505656004,1.000048279762268,0.0028480812907218933,1780982829689321567
1780982829789854543,1.909122602228308e-6,0.005079636350274086,0.000019487339159240946,0.014254610054194927,0.9999521970748901,-0.002843298250809312,1780982829787165436
1780982829889057221,-2.0007275907119038e-6,-0.005299734883010387,-0.00001940613401529845,-0.014279264025390148,1.00005042552948,0.002808830700814724,1780982829887303772
1780982829989987244,1.8277801245858427e-6,0.004864195361733437,0.000019439616153249517,0.014459580183029175,0.9999507665634155,-0.002640129067003727,1780982829987287679
1780982830089354517,1.8271201724928687e-6,0.00486253947019577,0.000019223891285946593,0.014715607278048992,0.9999501705169678,-0.0026023280806839466,1780982830067328769
1780982830189942077,1.8274979538546177e-6,0.00486379349604249,0.000019251874618930742,0.014736942015588284,0.9999498724937439,-0.0026093479245901108,1780982830188257226
1780982830289047093,-1.944005362020107e-6,-0.005147911608219147,-0.000018971393728861585,-0.013543844223022461,1.000048041343689,0.0024416258092969656,1780982830288826175
1780982830390012026,-1.945089934451971e-6,-0.005150485318154097,-0.000018904585886048153,-0.013606861233711243,1.0000481605529785,0.0024537628050893545,1780982830369129185
1780982830489832700,1.8317816738999682e-6,0.004875495098531246,0.000019084011000813916,0.01289515383541584,0.9999567866325378,-0.0022834299597889185,1780982830475920794
1780982830589729524,-1.9481412891764194e-6,-0.0051577421836555,-0.000018829257896868512,-0.014049703255295753,1.0000494718551636,0.0025348819326609373,1780982830569992334
1780982830689979220,1.8348442836213508e-6,0.0048838467337191105,0.000019055822122027166,0.014010204002261162,0.9999530911445618,-0.002484210766851902,1780982830671273328
1780982830789759321,-1.9517656255629845e-6,-0.0051666004583239555,-0.000018870390704250894,-0.013240962289273739,1.000046730041504,0.0023913050536066294,1780982830771099512
1780982830889418034,1.837800027715275e-6,0.004891867749392986,0.000019109402273898013,0.014215625822544098,0.9999523162841797,-0.002521754242479801,1780982830870868925
1780982830989578750,-1.961011548701208e-6,-0.005190175957977772,-0.000018943830582429655,-0.012957854196429253,1.000045895576477,0.002338874153792858,1780982830972577887
1780982831089058864,1.822512331273174e-6,0.0048509882763028145,0.000019401104509597644,0.015850428491830826,0.9999464154243469,-0.0024189564865082502,1780982831072383389
1780982831190408309,-1.9628580503194826e-6,-0.005194396711885929,-0.00001946414886333514,-0.014674192294478416,1.0000532865524292,0.002588533563539386,1780982831176990369
1780982831289088560,-1.9599435745476512e-6,-0.005186581984162331,-0.000019235814761486836,-0.01112967636436224,1.0000396966934204,0.002015180652961135,1780982831272148820
1780982831389099662,-1.9711462755367393e-6,-0.005215995945036411,-0.000019164192053722218,-0.012904674746096134,1.000045657157898,0.002361027058213949,1780982831387484676
1780982831489532591,1.8527920246924623e-6,0.004932527896016836,0.000019212197003071196,0.014747252687811852,0.9999503493309021,-0.0026576253585517406,1780982831485896246
1780982831589506371,-1.97495046450058e-6,-0.005225466098636389,-0.00001918027010106016,-0.015918511897325516,1.0000561475753784,0.0029253026004880667,1780982831587853951
1780982831689206368,1.8554272855908494e-6,0.004939988721162081,0.00001931939914356917,0.013534036464989185,0.9999544024467468,-0.002450173255056143,1780982831689053955
1780982831788903241,-1.9783276457019383e-6,-0.005233791656792164,-0.000019285804228275083,-0.013195233419537544,1.000046968460083,0.0024401163682341576,1780982831788697042
1780982831888974216,1.8007316384682781e-6,0.00479811429977417,0.000017092419511754997,0.013200975954532623,0.9999576807022095,-0.0027203133795410395,1780982831888499929
1780982831989567230,-1.9097778931609355e-6,-0.005052248947322369,-0.00001694210004643537,-0.012447413057088852,1.0000419616699219,0.0026292104739695787,1780982831989352116
1780982832089302200,1.8037752624877612e-6,0.004806838929653168,0.00001719970714475494,0.014978978782892227,0.9999520778656006,-0.0030958920251578093,1780982832089081476
1780982832189453400,1.8046531522486475e-6,0.0048093912191689014,0.00001724376306810882,0.013264130800962448,0.9999576807022095,-0.0027404744178056717,1780982832169599220
1780982832289833195,-1.9151618744217558e-6,-0.00506476080045104,-0.0000169818722497439,-0.011951109394431114,1.0000401735305786,0.00253593479283154,1780982832271064835
1780982832389673454,1.8071774547934183e-6,0.004816705826669931,0.000017142285287263803,0.012636909261345863,0.9999600648880005,-0.0026154983788728714,1780982832371943865
1780982832489972135,-1.9171116036886815e-6,-0.00506856944411993,-0.000016923071598284878,-0.014881572686135769,1.0000494718551636,0.0031567453406751156,1780982832471274341
1780982832589572078,1.8079427945849602e-6,0.004819474648684263,0.0000171092979144305,0.01357845589518547,0.9999572038650513,-0.002818529261276126,1780982832570860355
1780982832689500083,-1.918408088386059e-6,-0.005070583429187536,-0.000016910333215491846,-0.013079473748803139,1.000043511390686,0.002784221200272441,1780982832670812678
1780982832789177580,1.8081749431075878e-6,0.004820951726287603,0.000017100730474339798,0.013766550458967686,0.9999565482139587,-0.002863164758309722,1780982832772287790
1780982832889624861,-1.9191697901987936e-6,-0.005071200896054506,-0.000016904745280044153,-0.015336209908127785,1.0000507831573486,0.0032641019206494093,1780982832871864357
1780982832989463443,1.807869807635143e-6,0.004821044858545065,0.00001708603485894855,0.013594006188213825,0.9999570846557617,-0.0028312320355325937,1780982832972689549
1780982833089427216,-1.919061787702958e-6,-0.00506933405995369,-0.000016974589016172104,-0.01278695184737444,1.0000426769256592,0.0027311542071402073,1780982833074693594
1780982833189922477,1.805868691917567e-6,0.004816817585378885,0.000017106618543039076,0.013669183477759361,0.9999567270278931,-0.0028509015683084726,1780982833174122008
1780982833289249442,-1.918214820761932e-6,-0.00506551330909133,-0.000016838108422234654,-0.013142085634171963,1.0000436305999756,0.0028091506101191044,1780982833284612181
1780982833389093665,1.8052480754704447e-6,0.004816185217350721,0.000016965996110229753,0.011783833615481853,0.999963104724884,-0.002454567002132535,1780982833382290901
1780982833489447027,-1.917898771353066e-6,-0.005063050892204046,-0.000016683679859852418,-0.011195790022611618,1.0000371932983398,0.002399228047579527,1780982833487097242
1780982833589174249,-1.917878307722276e-6,-0.005062278360128403,-0.000016661077097523957,-0.012129202485084534,1.000040054321289,0.0025966702960431576,1780982833569030867
1780982833689892831,-1.917677764140535e-6,-0.0050607058219611645,-0.000016587586287641898,-0.013326449319720268,1.0000438690185547,0.002849831013008952,1780982833685172091
1780982833789944808,1.8037086420008563e-6,0.004814209416508675,0.00001680556670180522,0.01410349365323782,0.999955952167511,-0.002944954438135028,1780982833784072653
1780982833889266325,-1.919405349326553e-6,-0.0050635323859751225,-0.000016581188901909627,-0.012669342570006847,1.0000417232513428,0.002710177330300212,1780982833883609297
1780982833989254805,1.8054468000627821e-6,0.004819777794182301,0.000016838173905853182,0.013439730741083622,0.9999580979347229,-0.002804019721224904,1780982833985391620
1780982834089851021,-1.921407601912506e-6,-0.005067068617790937,-0.000016595078704995103,-0.013284903019666672,1.0000437498092651,0.0028386306948959827,1780982834084221666
1780982834189527027,1.8057061197396251e-6,0.004821497946977615,0.000016846704966155812,0.01617995649576187,0.9999492764472961,-0.0033793016336858273,1780982834185839089
1780982834289878945,-1.9158305804012343e-6,-0.00505039980635047,-0.000016880245311767794,-0.01243163738399744,1.000041127204895,0.0024936129339039326,1780982834287090241
1780982834389058194,1.8030616502073826e-6,0.004814907908439636,0.000016997244529193267,0.01315535418689251,0.9999587535858154,-0.0025817938148975372,1780982834387301283
1780982834489670882,-1.9234048522775993e-6,-0.005068999249488115,-0.000016818565200082958,-0.012639518827199936,1.0000417232513428,0.002692324807867408,1780982834486757735
1780982834588963234,1.7931665752257686e-6,0.004791483748704195,0.000015773093764437363,0.013033016584813595,0.9999610781669617,-0.00271151983179152,1780982834588367944
1780982834689670731,1.7904272908708663e-6,0.0047849309630692005,0.00001576935756020248,0.013929111883044243,0.999958336353302,-0.002899107988923788,1780982834668737986
1780982834788942081,1.7867795349957305e-6,0.004776258021593094,0.00001576482827658765,0.01348571665585041,0.9999597072601318,-0.002803023438900709,1780982834788644344
1780982834889728749,1.7844599824456964e-6,0.004770766478031874,0.00001576077011122834,0.013945038430392742,0.9999582767486572,-0.0028974527958780527,1780982834869781068
1780982834989076432,1.781162495717581e-6,0.004763038828969002,0.00001575696478539612,0.013478323817253113,0.9999596476554871,-0.002796475077047944,1780982834988849384
1780982835089030430,1.7790847550713806e-6,0.004758222959935665,0.00001574792986502871,0.013343426398932934,0.9999600648880005,-0.0027659728657454252,1780982835070184651
1780982835189650537,-1.8935608068204601e-6,-0.004982725717127323,-0.000015625088053639047,-0.013100458309054375,1.0000414848327637,0.0027801457326859236,1780982835170741424
1780982835289663314,1.8596768995848834e-6,0.004970842972397804,0.000016441663319710642,0.014140843413770199,0.9999573230743408,-0.002993933157995343,1780982835270803185
1780982835389846266,-1.9514275209076004e-6,-0.005134317092597485,-0.00001637587047298439,-0.012830137275159359,1.000040888786316,0.0027552717365324497,1780982835371188832
1780982835489250210,1.8067166820401326e-6,0.004832719452679157,0.000015978814190020785,0.013835053890943527,0.999958336353302,-0.0028784878086298704,1780982835472596106
1780982835589148083,-1.914185304485727e-6,-0.005033599678426981,-0.000015772844562889077,-0.01290883868932724,1.0000410079956055,0.0027430395130068064,1780982835576525821
1780982835689527567,1.7897917814480024e-6,0.004789474420249462,0.000015920342775643803,0.011640090495347977,0.9999651908874512,-0.002399028278887272,1780982835676693950
1780982835789396553,-1.910088485601591e-6,-0.005020723212510347,-0.00001577174407429993,-0.014998827129602432,1.0000474452972412,0.003164876950904727,1780982835774543596
1780982835889314647,1.7874427840069984e-6,0.004784612916409969,0.000015970374079188332,0.012641999870538712,0.9999619722366333,-0.0026038484647870064,1780982835875307174
1780982835989296385,-1.90915443454287e-6,-0.005016148090362549,-0.000015699486539233476,-0.012031271122395992,1.0000381469726562,0.0025415257550776005,1780982835976578868
1780982836089359180,1.7501143929621321e-6,0.004689388442784548,0.00001586643156770151,0.013470402918756008,0.9999594688415527,-0.0027600883040577173,1780982836074795564
1780982836189367783,-1.8775627950162743e-6,-0.004929604474455118,-0.000015615540178259835,-0.012569406069815159,1.0000399351119995,0.00264187203720212,1780982836175734956
1780982836289877316,1.7545427226650645e-6,0.004702949896454811,0.000015919886209303513,0.013365093618631363,0.9999597072601318,-0.0027438022661954165,1780982836276143251
1780982836389415586,-1.8824780454451684e-6,-0.004939858336001635,-0.0000156714904733235,-0.013792392797768116,1.0000437498092651,0.002900584600865841,1780982836375728332
1780982836489918559,-1.8837770312529756e-6,-0.004942146595567465,-0.000015673549569328316,-0.010864539071917534,1.0000346899032593,0.002292805351316929,1780982836460813906
1780982836589489016,1.7563944538778742e-6,0.004710696171969175,0.00001591370892128907,0.011806046590209007,0.9999645948410034,-0.0024235739838331938,1780982836579196112
1780982836689371114,-1.8858685280065401e-6,-0.004945628810673952,-0.000015698789866291918,-0.013182299211621284,1.0000417232513428,0.0027772935573011637,1780982836674176627
1780982836789525452,1.765218030413962e-6,0.004736008588224649,0.000016034919099183753,0.01172612514346838,0.9999651908874512,-0.0024245756212621927,1780982836776684590
1780982836889033454,-1.898305868053285e-6,-0.004979629535228014,-0.000015910554793663323,-0.012399434112012386,1.0000388622283936,0.0026403111405670643,1780982836874138312
1780982836989411706,1.7890313301904825e-6,0.004796127788722515,0.00001957320455403533,0.012580690905451775,0.9999487400054932,-0.0025543449446558952,1780982836975542467
1780982837089323565,-1.9303790850244695e-6,-0.005060344003140926,-0.000019387422071304172,-0.012853097170591354,1.0000554323196411,0.0026793875731527805,1780982837074620944
1780982837189296906,1.7933007256942801e-6,0.004808838479220867,0.00001955037259904202,0.013711908832192421,0.9999441504478455,-0.0027958431746810675,1780982837180395781
1780982837289502984,-1.935428144861362e-6,-0.005071709398180246,-0.000019331831936142407,-0.01279265433549881,1.000054955482483,0.0026751949917525053,1780982837274825218
1780982837389894623,1.7969697410080698e-6,0.004819925874471664,0.00001952140883076936,0.015986846759915352,0.999934732913971,-0.0032739376183599234,1780982837375095105
1780982837489607460,-1.9401104509597644e-6,-0.00508216954767704,-0.000019287850591354072,-0.012631640769541264,1.0000542402267456,0.0026488248258829117,1780982837476837466
1780982837589798325,1.80045560682629e-6,0.004830502904951572,0.000019470364350127056,0.01346477773040533,0.9999454021453857,-0.0027585895732045174,1780982837577023286
1780982837689965975,-1.944831183209317e-6,-0.005092764273285866,-0.00001908735794131644,-0.013653887435793877,1.000058650970459,0.0028661703690886497,1780982837677271017
1780982837789373350,1.804151452233782e-6,0.004842024762183428,0.000019162549506290816,0.011730631813406944,0.9999523162841797,-0.002402616199105978,1780982837781614287
1780982837889341437,-1.950022124219686e-6,-0.0051046679727733135,-0.000019053748474107124,-0.011890562251210213,1.0000516176223755,0.002503500320017338,1780982837880583680
1780982837989099545,1.8079948631566367e-6,0.004853574559092522,0.000019219176465412602,0.013779621571302414,0.9999433755874634,-0.0028313559014350176,1780982837978383407
1780982838089133857,-1.9551432615116937e-6,-0.005117026157677174,-0.000019137878553010523,-0.013587269932031631,1.0000590085983276,0.0028589896392077208,1780982838079318417
1780982838189476469,1.8119067135557998e-6,0.004865061957389116,0.000019345701730344445,0.012867609038949013,0.9999468326568604,-0.0026442930102348328,1780982838180750992
1780982838289918155,-1.960650934051955e-6,-0.005130426492542028,-0.00001923974195960909,-0.013111790642142296,1.0000574588775635,0.002762887626886368,1780982838280157609
1780982838389858568,1.8193451296610874e-6,0.004885992035269737,0.00001893371700134594,0.014168865978717804,0.9999409914016724,-0.002915184246376157,1780982838380007640
1780982838489667241,-1.9721683202078566e-6,-0.005159280728548765,-0.000018968068616231903,-0.01360238529741764,1.0000598430633545,0.0028626942075788975,1780982838480690850
1780982838589770524,-3.182600494255894e-7,0.004349094349890947,0.000014168168490868993,0.013296231627464294,0.9999614953994751,-0.0037326004821807146,1780982838579989631
1780982838689141924,-3.511361001073965e-6,-0.004581796005368233,-0.000013659051546710543,-0.009816453792154789,1.0000309944152832,0.002717303577810526,1780982838684426951
1780982838789404439,-1.6628330001822178e-7,0.004339895211160183,0.000013363368452701252,0.012116950005292892,0.9999639987945557,-0.003447889583185315,1780982838781650211
1780982838889460092,-3.408734301046934e-6,-0.0045980121940374374,-0.000012961118954990525,-0.012378971092402935,1.0000361204147339,0.003682536305859685,1780982838882836018
1780982838989728355,-4.1934452355008034e-8,0.004327703732997179,0.00001286532551603159,0.00970279797911644,0.9999734163284302,-0.002789153717458248,1780982838988352797
1780982839089829507,-3.5191437746107113e-6,-0.00403950922191143,-9.889484317682218e-6,-0.012051482684910297,0.9999932646751404,0.0033013916108757257,1780982839082126620
1780982839190024649,2.408011994248227e-7,0.004566390533000231,0.000013699115697818343,0.012801941484212875,0.9999621510505676,-0.0040857852436602116,1780982839182291911
1780982839289134762,-3.148270252495422e-6,-0.00482872873544693,-0.000013043055332673248,-0.010693898424506187,1.0000337362289429,0.0035530072636902332,1780982839285196652
1780982839389379915,3.5190745961699577e-7,0.004516070242971182,0.000012833211258111987,0.012316049076616764,0.9999637007713318,-0.003900089766830206,1780982839383684547
1780982839489197741,3.7278326203704637e-7,0.004472475498914719,0.000013094085261400323,0.012367857620120049,0.9999638795852661,-0.0038876323960721493,1780982839469124240
1780982839589823191,3.5638549888972193e-7,0.004376082215458155,0.000013319598110683728,0.01541471853852272,0.9999526739120483,-0.004751475062221289,1780982839586205937
1780982839689595953,-2.8738088531099493e-6,-0.004543747287243605,-0.000013378725270740688,-0.011309447698295116,1.0000367164611816,0.0035053337924182415,1780982839687749592
1780982839789091867,4.1278880758000014e-7,0.0042815604247152805,0.000012951032658747863,0.01465541310608387,0.9999546408653259,-0.0043742479756474495,1780982839785362095
1780982839889806055,-2.764900955298799e-6,-0.0045380424708127975,-0.000013017368473811075,-0.013192035257816315,1.0000431537628174,0.004077583085745573,1780982839888075564
1780982839988981641,5.172890951143927e-7,0.004270684905350208,0.000012873643754574005,0.011593691073358059,0.9999641180038452,-0.0034526390954852104,1780982839988816637
1780982840089039460,-2.651054956004373e-6,-0.004527501296252012,-0.0000129190921143163,-0.010753879323601723,1.0000355243682861,0.003343193558976054,1780982840088642859
1780982840189045518,6.236888339117286e-7,0.004261667374521494,0.000012793051610060502,0.01180631760507822,0.9999630451202393,-0.00352133228443563,1780982840188453753
1780982840288966555,-2.535734438424697e-6,-0.00451942952349782,-0.000012891367987322155,-0.010982144623994827,1.0000367164611816,0.003415897022932768,1780982840288517613
1780982840389356576,7.342745789173932e-7,0.004253158811479807,0.000012814351066481322,0.011550395749509335,0.9999637007713318,-0.00344566791318357,1780982840389213769
1780982840489689702,7.795435408297635e-7,0.004250212572515011,0.000012832169886678457,0.012112010270357132,0.999961793422699,-0.0036177474539726973,1780982840468950160
1780982840589581644,-2.3706445517746033e-6,-0.004510056227445602,-0.000012930020602652803,-0.01125539280474186,1.0000377893447876,0.0035021521616727114,1780982840570755973
1780982840689146271,5.465003596327733e-7,0.004147104453295469,9.512978976999875e-6,0.011436114087700844,0.9999777674674988,-0.0033781263045966625,1780982840670436672
1780982840789927831,-2.6203272227576235e-6,-0.004357717465609312,-9.472484634898137e-6,-0.011125456541776657,1.0000227689743042,0.0034298414830118418,1780982840769899248
1780982840889416705,6.382161359397287e-7,0.0041359481401741505,9.461558875045739e-6,0.010969473049044609,0.9999788403511047,-0.003243654500693083,1780982840871740919
1780982840989137403,-2.5182678200508235e-6,-0.004349422175437212,-9.410017810296267e-6,-0.010936078615486622,1.0000224113464355,0.00337998871691525,1780982840972446495
1780982841089861533,7.379089765890967e-7,0.004128837026655674,9.406045137438923e-6,0.011631624773144722,0.9999775290489197,-0.0034490979742258787,1780982841071020632
1780982841189812850,-2.4145667794073233e-6,-0.004340769723057747,-9.28166900848737e-6,-0.011067729443311691,1.0000224113464355,0.003425395581871271,1780982841174913931
1780982841289868123,8.35696994272439e-7,0.004121188540011644,9.167561074718833e-6,0.01124767865985632,0.9999789595603943,-0.003336826106533408,1780982841278057321
1780982841389349001,-2.323038415852352e-6,-0.004331998061388731,-8.758831427257974e-6,-0.011153444647789001,1.0000221729278564,0.0034550039563328028,1780982841373744347
1780982841489467141,9.220098036166746e-7,0.004116350319236517,8.524792065145448e-6,0.011673144064843655,0.9999778270721436,-0.0034679281525313854,1780982841473548258
1780982841589174341,-2.229475057902164e-6,-0.004326661117374897,-8.598324711783789e-6,-0.010804209858179092,1.0000219345092773,0.00335027277469635,1780982841574424227
1780982841689969770,1.0120635351995588e-6,0.004112160764634609,8.513698048773222e-6,0.011567640118300915,0.9999777674674988,-0.003436669474467635,1780982841672981844
1780982841789997780,-2.1339715203794185e-6,-0.004322445951402187,-8.564248673792463e-6,-0.010668903589248657,1.0000219345092773,0.0033097744453698397,1780982841776257815
1780982841889180242,1.10223118099384e-6,0.0041085355915129185,8.500539479427971e-6,0.010759332217276096,0.9999791979789734,-0.003191778901964426,1780982841877416969
1780982841989410925,-2.0403651888045715e-6,-0.004318744409829378,-8.53597612149315e-6,-0.011005185544490814,1.0000226497650146,0.003412452759221196,1780982841976636271
1780982842089349804,1.1914447668459616e-6,0.004105390980839729,8.483132660330739e-6,0.011903802864253521,0.9999768137931824,-0.003539399476721883,1780982842075447998
1780982842189163854,-1.948948465724243e-6,-0.004315499681979418,-8.505554433213547e-6,-0.01058918982744217,1.0000219345092773,0.0032863726373761892,1780982842176325233
1780982842289095727,1.2581277815115754e-6,0.0040810601785779,9.250093171431217e-6,0.009981907904148102,0.9999741911888123,-0.0032855961471796036,1780982842279343175
1780982842389975918,-1.8629640408107662e-6,-0.004312420263886452,-8.48125091579277e-6,-0.010508114472031593,1.0000216960906982,0.003262236248701811,1780982842378248681
1780982842489666545,1.3610851965495385e-6,0.004099348559975624,8.424242878390942e-6,0.011609125882387161,0.9999777674674988,-0.003449804848060012,1780982842479491937
1780982842589830616,-1.782881781764445e-6,-0.004308203235268593,-8.425936357525643e-6,-0.012856733053922653,1.000025749206543,0.003974458202719688,1780982842579795040
1780982842689439310,1.4410467201741994e-6,0.0040962048806250095,8.338525731232949e-6,0.011797972954809666,0.9999779462814331,-0.0035061633680015802,1780982842679741303
1780982842789595442,-1.7046054381353315e-6,-0.00430678715929389,-8.356325452041347e-6,-0.010477690026164055,1.0000206232070923,0.003253733739256859,1780982842781929749
1780982842889340656,1.5230406233968097e-6,0.0040976507589221,8.315758350363467e-6,0.010265002958476543,0.999981164932251,-0.003043431555852294,1780982842882588853
1780982842989072456,-1.624374590392108e-6,-0.004307027906179428,-8.336608516401611e-6,-0.010945235379040241,1.0000213384628296,0.003397393738850951,1780982842980361316
1780982843089890883,1.6035760381782893e-6,0.004098205827176571,8.30794215289643e-6,0.011161519214510918,0.999979555606842,-0.0033164997585117817,1780982843081064099
1780982843189854430,-1.5452579873453942e-6,-0.0043077790178358555,-8.324667760462034e-6,-0.010327336378395557,1.0000200271606445,0.003210079623386264,1780982843181154392
1780982843289150288,1.923451463881065e-6,0.00428113853558898,0.000010441105587233324,0.011870931833982468,0.999967098236084,-0.003392620477825403,1780982843281447935
1780982843389891806,-1.160000465461053e-6,-0.004514528904110193,-0.000011133919542771764,-0.009261026047170162,1.000030755996704,0.0026817149482667446,1780982843387152953
1780982843489229482,2.0971638150513172e-6,0.004259199369698763,0.000012124410204705782,0.012018020264804363,0.9999629855155945,-0.0033298733178526163,1780982843483438271
1780982843589270162,-1.068430719897151e-6,-0.004520699381828308,-0.000012394799341564067,-0.010659917257726192,1.0000348091125488,0.0030751065351068974,1780982843585357812
1780982843690004477,2.1747953269368736e-6,0.004262564238160849,0.000012548448466986883,0.012262947857379913,0.9999624490737915,-0.0033969429787248373,1780982843683148670
1780982843789808030,-9.875905107037397e-7,-0.004524899180978537,-0.000012545222489279695,-0.010809882543981075,1.000035285949707,0.003115292638540268,1780982843784900155
1780982843889087224,2.410829438304063e-6,0.004353981930762529,0.000012366477676550858,0.012506957165896893,0.9999598264694214,-0.003362068673595786,1780982843884315114
1780982843989003083,-8.341551733792585e-7,-0.004600155167281628,-0.000013169777957955375,-0.012153839692473412,1.0000407695770264,0.0034940019249916077,1780982843985307954
1780982844089790120,2.4504572593286866e-6,0.0043180338107049465,0.000013397354450717103,0.01269129291176796,0.9999597072601318,-0.003494199365377426,1780982844085064780
1780982844189021099,-7.58661997224408e-7,-0.004600811749696732,-0.00001340869039268,-0.011361822485923767,1.0000382661819458,0.003248048946261406,1780982844186363560
1780982844289074471,2.5277950044255704e-6,0.004325006157159805,0.00001343810981779825,0.013333023525774479,0.9999575614929199,-0.003675143700093031,1780982844286290125
1780982844389432277,-6.86645137193409e-7,-0.004608815535902977,-0.000013427554222289473,-0.011471281759440899,1.0000386238098145,0.0032783644273877144,1780982844386829244
1780982844489042157,2.602408130769618e-6,0.004330639727413654,0.000013540736290451605,0.011274590156972408,0.9999642372131348,-0.0030950233340263367,1780982844488871178
1780982844589593191,-6.935208034519746e-7,-0.004553448874503374,-0.000012837725080316886,-0.011007397435605526,1.0000358819961548,0.00315858144313097,1780982844587809744
1780982844689523814,2.566390548963682e-6,0.0042927139438688755,0.000013030698937654961,0.012649369426071644,0.9999611973762512,-0.0034917176235467196,1780982844687824449
1780982844788952823,-6.214781933522318e-7,-0.0045597245916724205,-0.000012979216990061104,-0.015441610477864742,1.0000495910644531,0.004401813726872206,1780982844788773292
1780982844889021829,2.7119240257889032e-6,0.0044859484769403934,0.00001967613206943497,0.01146591454744339,0.9999591708183289,-0.0018561830511316657,1780982844888531781
1780982844989291424,2.830023959177197e-6,0.004545613192021847,0.000013417096852208488,0.013840733096003532,0.999957263469696,-0.004205457866191864,1780982844969319267
1780982845089865403,-5.388637873693369e-7,-0.004832188133150339,-0.000013049801964371,-0.011602121405303478,1.0000391006469727,0.003631324740126729,1780982845070112244
1780982845189632227,2.9240516141726403e-6,0.004524616524577141,0.000013482341273629572,0.012149586342275143,0.9999621510505676,-0.003630418097600341,1780982845170963956
1780982845289227433,-4.3209331579419086e-7,-0.00474585173651576,-0.000013536334336095024,-0.011716095730662346,1.0000381469726562,0.003503684187307954,1780982845269583449
1780982845389953238,2.916668108809972e-6,0.004396787844598293,0.00001347074157820316,0.01256320346146822,0.9999619126319885,-0.00350469839759171,1780982845370132103
1780982845489914137,-3.725220096839621e-7,-0.004588712938129902,-0.00001353855350316735,-0.010384942404925823,1.0000333786010742,0.0029761067125946283,1780982845473147188
1780982845589020475,2.9083537356200395e-6,0.004321807064116001,0.000013276126992423087,0.012036536820232868,0.9999651908874512,-0.0033093455713242292,1780982845572182342
1780982845689236565,-3.5412142551649595e-7,-0.004584919195622206,-0.000013188050616008695,-0.011370368301868439,1.0000340938568115,0.003244467545300722,1780982845672540245
1780982845789903533,2.9448053737723967e-6,0.004317346960306168,0.000012983698979951441,0.012484307400882244,0.9999653697013855,-0.0034289415925741196,1780982845772091847
1780982845889276018,-3.258285801166494e-7,-0.004578948486596346,-0.000012835616871598177,-0.01152890920639038,1.0000331401824951,0.003282060381025076,1780982845874430826
1780982845989201669,3.4840841180994175e-6,0.004559404216706753,8.104467269731686e-6,0.015569023787975311,0.9999645948410034,-0.004035762511193752,1780982845975363833
1780982846089052986,9.900993802602898e-8,-0.004813880193978548,-8.262945812020916e-6,-0.012724772095680237,1.0000436305999756,0.0034329411573708057,1780982846075130832
1780982846189128637,3.6162364267511293e-6,0.004533963743597269,0.000011885552339663263,0.012971355579793453,0.9999552965164185,-0.003386851167306304,1780982846175027228
1780982846289919657,1.8293995651674777e-7,-0.004843359813094139,-0.000015202600479824468,-0.01240746770054102,1.0000470876693726,0.003311717417091131,1780982846277095940
1780982846389337669,3.5781383758148877e-6,0.00450394069775939,0.00001700384746072814,0.012582329101860523,0.9999532103538513,-0.003223516047000885,1780982846378415072
1780982846489205447,2.169387158801328e-7,-0.004845294635742903,-0.000016920668713282794,-0.01227625273168087,1.0000479221343994,0.003211958333849907,1780982846478400830
1780982846589783497,3.5987973205919843e-6,0.004495682660490274,0.00001686192445049528,0.014030581340193748,0.9999483823776245,-0.0035178482066839933,1780982846578883275
1780982846689178055,2.392068267909053e-7,-0.0048355832695961,-0.000016766702174209058,-0.012259813025593758,1.000047206878662,0.0031292475759983063,1780982846677336819
1780982846789995491,3.6202147839503596e-6,0.004486002493649721,0.00001676456304267049,0.013085752725601196,0.9999525547027588,-0.003198470687493682,1780982846779081662
1780982846889246983,2.669298453383817e-7,-0.004825044423341751,-0.000016770725778769702,-0.012853020802140236,1.0000492334365845,0.00319435796700418,1780982846879454989
1780982846989940643,3.6437011203815928e-6,0.004474298097193241,0.00001680485365795903,0.011996486224234104,0.9999565482139587,-0.0028541928622871637,1780982846982211875
1780982847089295639,3.0135021233945736e-7,-0.0048123919405043125,-0.000016812311514513567,-0.012988761067390442,1.0000499486923218,0.003140412736684084,1780982847080431086
1780982847189602446,3.6691715195047436e-6,0.004460265394300222,0.000016877294910955243,0.013470065779983997,0.9999508261680603,-0.003133510472252965,1780982847181718180
1780982847289909257,3.387383742392558e-7,-0.004803108982741833,-0.000016810088709462434,-0.012134137563407421,1.0000468492507935,0.0028782766312360764,1780982847281021977
1780982847389175803,3.700968818520778e-6,0.004448672290891409,0.00001688759402895812,0.013044163584709167,0.9999523758888245,-0.002993087051436305,1780982847388934031
1780982847489820827,3.843078104637243e-7,-0.00479249469935894,-0.000016914409570745192,-0.011840556748211384,1.0000464916229248,0.0027810060419142246,1780982847481744107
1780982847589234835,3.7439663174154703e-6,0.004436682444065809,0.000017068532542907633,0.013471734710037708,0.999950110912323,-0.0030645730439573526,1780982847581423287
1780982847689413831,4.2691658563853707e-7,-0.0047814976423978806,-0.00001716671249596402,-0.01193119864910841,1.000046730041504,0.002775297500193119,1780982847682628882
1780982847789296394,3.7796294236613903e-6,0.004424344282597303,0.00001766918649082072,0.012348702177405357,0.999953031539917,-0.002785362536087632,1780982847783412421
1780982847889893187,4.4915594799022074e-7,-0.00477499607950449,-0.000017713469787850045,-0.011401346884667873,1.0000457763671875,0.002635832643136382,1780982847884064235
1780982847989764092,1.0056221810827992e-7,-0.004693740047514439,-0.00001109785898734117,-0.012619701214134693,0.9999967217445374,0.0029482378158718348,1780982847962842833
1780982848089521039,3.0072587833274156e-6,0.003673356957733631,8.28418069431791e-6,0.01197733823210001,0.9999843239784241,-0.002013968536630273,1780982848074830413
1780982848189511607,4.635384343032456e-8,-0.004964994266629219,-0.000011580431419133674,-0.01355888694524765,1.0000216960906982,0.0035828188993036747,1780982848174764202
1780982848289240749,3.7192069157754304e-6,0.004614708945155144,0.000011290428119536955,0.01283766608685255,0.9999812841415405,-0.0032686498016119003,1780982848277599371
1780982848389103177,5.7782827411756443e-8,-0.004893475212156773,-0.000011037592230422888,-0.012580834329128265,1.0000184774398804,0.003245382569730282,1780982848375286685
1780982848489081089,3.65961273018911e-6,0.004502184689044952,0.000010488284715393092,0.013459354639053345,0.999982476234436,-0.0032784147188067436,1780982848475357986
1780982848589834374,7.406036672819027e-8,-0.004719472024589777,-0.000010062762157758698,-0.013242946937680244,1.000016450881958,0.0031769422348588705,1780982848576956138
1780982848689453086,3.586708089642343e-6,0.004360672552138567,9.784657777345274e-6,0.013995529152452946,0.9999841451644897,-0.0031777555122971535,1780982848677572979
1780982848789528548,9.631563102630025e-8,-0.00466084573417902,-9.723573384690098e-6,-0.014721998944878578,1.0000174045562744,0.0034184795804321766,1780982848778846324
1780982848889825348,3.5860387015418382e-6,0.004361962433904409,0.000010346429917262867,0.012408539652824402,0.9999866485595703,-0.0028130952268838882,1780982848878131959
1780982848989758395,-8.971576193061992e-8,-0.004584350623190403,-0.000010205247235717252,-0.011672637425363064,1.0000133514404297,0.002801212016493082,1780982848978091632
1780982849089780790,3.296676823083544e-6,0.0043012043461203575,0.000010200011274719145,0.015165016986429691,0.9999836683273315,-0.0035526256542652845,1780982849079091656
1780982849189205186,-8.0380438305383e-8,-0.004597135819494724,-0.000010312104677723255,-0.009510206058621407,1.0000108480453491,0.0022911205887794495,1780982849183524513
1780982849289351722,3.3142778192996047e-6,0.004311459604650736,0.000010219837349723093,0.012762079015374184,0.9999861121177673,-0.0029846816323697567,1780982849280568461
1780982849389905502,2.7230225896346383e-6,0.003468137700110674,7.553559498774121e-6,0.0112629858776927,0.9999871253967285,-0.001756891142576933,1780982849370807830
1780982849491120124,-1.1299169955236721e-7,-0.004902626387774944,-0.00001081883419828955,-0.011686744168400764,1.0000132322311401,0.0031702083069831133,1780982849478556894
1780982849589849344,3.496529416224803e-6,0.004583312664180994,0.000010514264431549236,0.012668008916079998,0.9999859929084778,-0.0033139907754957676,1780982849577757953
1780982849689282076,-9.485999186154004e-8,-0.004865332506597042,-0.000010504119927645661,-0.014574797824025154,1.0000169277191162,0.003873830195516348,1780982849674480679
1780982849790029525,3.462033419054933e-6,0.004509464837610722,0.000010292553270119242,0.013036522082984447,0.9999854564666748,-0.003306448692455888,1780982849775226200
1780982849890013610,-6.621101533710316e-8,-0.004736162722110748,-0.000010284747077093925,-0.01313644740730524,1.0000154972076416,0.0033124799374490976,1780982849874276390
1780982849989563779,3.3754370178940007e-6,0.004350494127720594,0.000010363705769123044,0.012668006122112274,0.9999859929084778,-0.002929836744442582,1780982849974933209
1780982850089617734,-3.300721473920021e-8,-0.004637677688151598,-0.000010415759788884316,-0.012122975662350655,1.000014066696167,0.0028998753987252712,1780982850075945104
1780982850189959399,3.3849610190372914e-6,0.004345458000898361,0.000010540063158259727,0.012538102455437183,0.9999861121177673,-0.002922492567449808,1780982850176982475
1780982850289341375,-2.6909493300308895e-8,-0.004666124936193228,-0.000010531096449994948,-0.011617777869105339,1.0000134706497192,0.0027932163793593645,1780982850277394691
1780982850389928389,3.4156341826019343e-6,0.004378686659038067,0.000010554987056821119,0.012577483430504799,0.9999861717224121,-0.0029519053641706705,1780982850378177904
1780982850489382932,-1.7882424430126775e-8,-0.004687992390245199,-0.000010593376828182954,-0.012094167061150074,1.000014066696167,0.0029137020464986563,1780982850479567368
1780982850589329758,3.437770601522061e-6,0.004396647214889526,0.000010615795872581657,0.01390561182051897,0.999984622001648,-0.003274461254477501,1780982850578635903
1780982850689571153,-9.421680324805948e-9,-0.004705960396677256,-0.000010654331163095776,-0.011294626630842686,1.0000131130218506,0.0027275308966636658,1780982850680693149
1780982850789103866,3.456996410022839e-6,0.004411765374243259,0.000010672986718418542,0.012876314111053944,0.9999858140945435,-0.003033328102901578,1780982850779355267
1780982850889969471,-2.4345370164269298e-9,-0.0047231921926140785,-0.000010784010555653367,-0.012605122290551662,1.0000146627426147,0.003041590563952923,1780982850880948109
1780982850989973125,3.472955995675875e-6,0.0044252327643334866,0.000010782701792777516,0.014136334881186485,0.9999843239784241,-0.0033354759216308594,1780982850981231893
1780982851089358460,3.2818432416092946e-9,-0.0047360993921756744,-0.000010841416951734573,-0.012331985868513584,1.000014305114746,0.0029771639965474606,1780982851082324945
1780982851189142147,3.4860704545280896e-6,0.004436383489519358,0.000010844726602954324,0.01367990579456091,0.999984860420227,-0.003226863918825984,1780982851182286923
1780982851289970840,9.006701162661557e-9,-0.004747204482555389,-0.000010902009307756089,-0.011655875481665134,1.0000135898590088,0.0028149932622909546,1780982851283169086
1780982851389781545,3.49905690200103e-6,0.004447074607014656,0.000010870154255826492,0.013495390303432941,0.9999851584434509,-0.003181764855980873,1780982851385076595
1780982851489600560,1.5937397179754953e-8,-0.004757638555020094,-0.000010917097824858502,-0.012033719569444656,1.0000139474868774,0.002902800915762782,1780982851483903387
1780982851589380954,3.517805680530728e-6,0.0044570621103048325,0.000010972345080517698,0.013312126509845257,0.9999855756759644,-0.0031365423928946257,1780982851583654375
1780982851689333985,2.496548390240605e-8,-0.004767348524183035,-0.000011091838132415432,-0.011992106214165688,1.0000133514404297,0.0028901686891913414,1780982851685513640
1780982851789989807,3.5462758205540013e-6,0.00446620536968112,0.000011180555702594575,0.012603717856109142,0.999987006187439,-0.0029651722870767117,1780982851785159402
1780982851889597650,3.777116219794152e-8,-0.004774622619152069,-0.000011105921657872386,-0.012609397992491722,1.0000133514404297,0.0030315080657601357,1780982851885873544
1780982851989673263,3.576581093511777e-6,0.004475692752748728,0.000011363687008270063,0.012948674149811268,0.9999873042106628,-0.0030435568187385798,1780982851987467113
1780982852088923355,5.4294609697080887e-8,-0.004785191733390093,-0.000011430270205892157,-0.01152687519788742,1.000011682510376,0.0027707163244485855,1780982852088120675
1780982852189761339,3.605321808208828e-6,0.004483659286051989,0.000011460377209004946,0.012235438451170921,0.999988317489624,-0.002869419055059552,1780982852188026874
1780982852289134164,7.699112103409789e-8,-0.004792469087988138,-0.000011487775736895856,-0.0117806950584054,1.0000118017196655,0.0028251027688384056,1780982852288927545
1780982852389934707,3.6312039810582064e-6,0.004490700550377369,0.000011511297088873107,0.012920083478093147,0.9999877214431763,-0.0030256137251853943,1780982852388285483
1780982852489508536,1.4761424438347603e-7,-0.005089768208563328,-6.708211913064588e-6,-0.0124232592061162,1.0000053644180298,0.0026544383727014065,1780982852489380299
1780982852589685078,2.354598365172933e-7,-0.004954564850777388,-0.000012183148101030383,-0.012819078750908375,1.0000141859054565,0.0027890086639672518,1780982852569724684
1780982852689268948,3.906044184986968e-6,0.004665981978178024,0.000013593261428468395,0.012434293515980244,0.9999727606773376,-0.002725272672250867,1780982852671425941
1780982852789029966,2.4987014057842316e-7,-0.004964358173310757,-0.000012396131751302164,-0.012983734719455242,1.000013828277588,0.0028146898839622736,1780982852771365885
1780982852889729528,3.918351467291359e-6,0.0046269576996564865,0.000012406156201905105,0.014049926772713661,0.9999856948852539,-0.0029919215012341738,1780982852872681982
1780982852989678279,2.692521547942306e-7,-0.0049744355492293835,-0.000012424148735590279,-0.012948362156748772,1.000013828277588,0.0027977873105555773,1780982852972942557
1780982853089380912,3.9419842323695775e-6,0.00463616568595171,0.000012499246622610372,0.013816190883517265,0.9999858736991882,-0.002933839801698923,1780982853074617086
1780982853189388152,2.88547596483113e-7,-0.0049855527468025684,-0.000012528710612969007,-0.013315625488758087,1.0000141859054565,0.00286700576543808,1780982853173700808
1780982853289613182,3.7218442230368964e-6,0.00449012964963913,0.000011466028809081763,0.013923662714660168,0.999986469745636,-0.0032793348655104637,1780982853273850005
1780982853389054890,2.1449872633638734e-7,-0.004795275628566742,-0.000011705851648002863,-0.010551444254815578,1.0000132322311401,0.0024507681373506784,1780982853378133761
1780982853489274974,3.766836925933603e-6,0.004501223098486662,0.00001167553728009807,0.013421568088233471,0.9999875426292419,-0.003153451718389988,1780982853475520244
1780982853589603193,2.4370771711801353e-7,-0.004809021484106779,-0.000011712279956554994,-0.012239648960530758,1.000011682510376,0.00293045025318861,1780982853575665330
1780982853689737336,3.805695769187878e-6,0.004512237384915352,0.000011741186426661443,0.01296973042190075,0.9999884366989136,-0.0030401202384382486,1780982853676828632
1780982853789628096,2.601606468033424e-7,-0.004819406662136316,-0.000011859415280923713,-0.012101857922971249,1.0000109672546387,0.0028913000132888556,1780982853776981554
1780982853889634760,3.8356192817445844e-6,0.004521142691373825,0.000011910262401215732,0.013221130706369877,0.9999886751174927,-0.003094031009823084,1780982853878000673
1780982853989655931,2.7250391099187254e-7,-0.004844725597649813,-0.00001029862050927477,-0.011683383956551552,1.0000104904174805,0.002776204841211438,1780982853978843122
1780982854089465303,3.877007202390814e-6,0.004534788429737091,0.000012101066204195376,0.013444805517792702,0.9999882578849792,-0.0031410646624863148,1780982854080718596
1780982854190018414,3.2190658316721965e-7,-0.004854901228100061,-0.000012325413081271108,-0.013168729841709137,1.0000122785568237,0.00312735210172832,1780982854180274010
1780982854289052072,3.934645064873621e-6,0.0045534283854067326,0.00001208551930176327,0.013823526911437511,0.999986469745636,-0.003214075695723295,1780982854281333049
1780982854389246519,3.889360016273713e-7,-0.004862811416387558,-0.000012149595931987278,-0.01362820528447628,1.0000135898590088,0.0031279688701033592,1780982854379621894
1780982854489199553,3.967677912442014e-6,0.004560080356895924,0.000012336633517406881,0.013718863017857075,0.999988317489624,-0.0031822561286389828,1780982854483352531
1780982854589001229,3.466805367224879e-7,-0.004871515091508627,-0.000012671730473812204,-0.013066866435110569,1.00001060962677,0.0030891597270965576,1780982854583295779
1780982854689983318,3.957975877710851e-6,0.004554455168545246,0.000012597176464623772,0.01899535208940506,0.9999843835830688,-0.004423908889293671,1780982854683256220
1780982854789436073,3.874432366046676e-7,-0.004870751406997442,-0.000012500603588705417,-0.01308975089341402,1.0000121593475342,0.003090424695983529,1780982854782816446
1780982854889180738,3.98320935346419e-6,0.004558310844004154,0.00001237411197507754,0.013030056841671467,0.9999881386756897,-0.0030197794549167156,1780982854883494894
1780982854989887666,4.241910005475802e-7,-0.00487499451264739,-0.000012413994227244984,-0.013023706153035164,1.0000123977661133,0.0030660449992865324,1780982854983732071
1780982855089991619,4.0176728361984715e-6,0.004563911352306604,0.000012373641766316723,0.01393797341734171,0.9999873042106628,-0.0032233400270342827,1780982855083271163
1780982855189006882,4.6181895640984294e-7,-0.004880290478467941,-0.000012448799679987133,-0.013132769614458084,1.0000123977661133,0.0030814833007752895,1780982855183378756
1780982855289962407,4.0565246308688074e-6,0.004570076707750559,0.000012426738067006227,0.014265242032706738,0.9999871850013733,-0.00328986719250679,1780982855285068888
1780982855389828314,5.022770892537665e-7,-0.004886255133897066,-0.000012575051187013742,-0.012137186713516712,1.0000110864639282,0.002840679604560137,1780982855385231196
1780982855489009149,4.101263129996369e-6,0.0045771170407533646,0.000012521481949079316,0.012915928848087788,0.9999887943267822,-0.002967632608488202,1780982855486160262
1780982855589520847,5.432992793430458e-7,-0.0048920270055532455,-0.000012628751392185222,-0.012362412177026272,1.0000110864639282,0.002881817752495408,1780982855585889651
1780982855689620885,4.143689693592023e-6,0.004582594148814678,0.00001264954153157305,0.014078223146498203,0.9999879598617554,-0.0032256741542369127,1780982855686767177
1780982855789525098,8.862112395036092e-7,-0.0036273973528295755,-0.000016923588191275485,-0.011720114387571812,1.0000241994857788,0.0012533551780506968,1780982855787830538
1780982855889747178,4.324533620092552e-6,0.004854788072407246,0.000013343264072318561,0.014838965609669685,0.9999892711639404,-0.0038025176618248224,1780982855886857420
1780982855989791732,7.66659297823935e-7,-0.004131095949560404,-8.106802852125838e-6,-0.012610726058483124,0.9999949336051941,0.0026277995202690363,1780982855987068033
1780982856089485371,4.36955269833561e-6,0.004880513995885849,0.000013527554074244108,0.013830048963427544,0.9999904036521912,-0.00356134120374918,1780982856087581512
1780982856189260852,5.572766781369864e-7,-0.005182876717299223,-0.000013570050214184448,-0.014128787443041801,1.0000112056732178,0.003660035552456975,1780982856189108335
1780982856289371550,5.854597020515939e-7,-0.005137213040143251,-0.000013409240636974573,-0.013919242657721043,1.0000115633010864,0.0035426539834588766,1780982856270718403
1780982856389447505,3.8032869724702323e-6,0.004037841223180294,0.000011134777196275536,0.011890956200659275,0.9999898076057434,-0.0031760979909449816,1780982856369624487
1780982856489715053,7.112961952771002e-7,-0.00489508593454957,-0.000010842592018889263,-0.01147169154137373,1.0000113248825073,0.0026386305689811707,1780982856472754244
1780982856589452168,4.3255458876956254e-6,0.004610741510987282,0.000013240809494163841,0.014801369048655033,0.9999875426292419,-0.003350369166582823,1780982856570678067
1780982856689429344,7.588405424030498e-7,-0.0049368469044566154,-0.000013341526937438175,-0.012047701515257359,1.0000107288360596,0.002756404923275113,1780982856671760239
1780982856789240243,4.422767688083695e-6,0.00467141717672348,0.000011641261153272353,0.012752811424434185,1.0000083446502686,-0.002495673717930913,1780982856772419721
1780982856889828518,6.615451866309741e-7,-0.004899526946246624,-0.000014022965842741542,-0.013585202395915985,1.000005841255188,0.0033911506179720163,1780982856872045588
1780982856992356062,4.291073764761677e-6,0.004602557048201561,0.000013331222362467088,0.0118933767080307,0.9999924898147583,-0.0029088836163282394,1780982856980851980
1780982857089266530,7.208211059150926e-7,-0.004911857657134533,-0.000013460380614560563,-0.012549315579235554,1.0000088214874268,0.0031199026852846146,1780982857074546577
1780982857189680899,4.3378581722208764e-6,0.00461428239941597,0.000013122402378940023,0.010241647250950336,0.9999921321868896,-0.002498926129192114,1780982857180874679
1780982857289792568,7.897898512965185e-7,-0.0049274577759206295,-0.0000132228851725813,-0.016842655837535858,1.000014066696167,0.004171164706349373,1780982857281764833
1780982857389797688,4.402672857395373e-6,0.004628148395568132,0.000013277173820824828,0.010232426226139069,0.9999918341636658,-0.002493127714842558,1780982857384729459
1780982857489212893,8.51743550356332e-7,-0.0049453130923211575,-0.000013389331797952764,-0.009871579706668854,1.000008463859558,0.0024498372804373503,1780982857484339475
1780982857589987766,4.475142304727342e-6,0.004642905201762915,0.000013462509741657414,0.013369464315474033,0.9999890327453613,-0.003259580582380295,1780982857579303349
1780982857689920321,9.158636089523498e-7,-0.00496425898745656,-0.000013641322766488884,-0.012347402982413769,1.0000104904174805,0.003052194369956851,1780982857680280514
1780982857789760443,4.552447990135988e-6,0.004658733494579792,0.000013708530786971096,0.013724877499043941,0.999988853931427,-0.003341157454997301,1780982857781557167
1780982857889675837,9.833290732785827e-7,-0.004984020255506039,-0.000013903621947974898,-0.012623254209756851,1.00001060962677,0.003112729638814926,1780982857880777801
1780982857989404533,4.633303888113005e-6,0.0046748388558626175,0.000013974495232105255,0.013751075603067875,0.9999889135360718,-0.0033414859790354967,1780982857980731870
1780982858089346492,1.031265128403902e-6,-0.0050035202875733376,-0.000014432273928832728,-0.012538455426692963,1.0000090599060059,0.0030858642421662807,1780982858081640838
1780982858189908069,4.696432370110415e-6,0.004688592161983252,0.000014322221431939397,0.013614000752568245,0.9999906420707703,-0.0033035154920071363,1780982858181109831
1780982858289302015,1.0798149787660805e-6,-0.005019559059292078,-0.000014544160876539536,-0.012474412098526955,1.0000089406967163,0.0030647548846900463,1780982858282544548
1780982858389350619,4.7566941248078365e-6,0.00470369029790163,0.000014443107829720248,0.012060513719916344,0.9999917149543762,-0.0029201426077634096,1780982858384657876
1780982858489994222,1.1304911140541662e-6,-0.005036949645727873,-0.000014737911442352924,-0.01324307918548584,1.000009536743164,0.003245640080422163,1780982858482273635
1780982858589372687,4.818308298126794e-6,0.004718329291790724,0.000014689260751765687,0.013355351984500885,0.9999907612800598,-0.003229790832847357,1780982858583686371
1780982858689633885,1.1821501857411931e-6,-0.005056008230894804,-0.000015012936273706146,-0.012306156568229198,1.0000089406967163,0.00300916051492095,1780982858684908083
1780982858789882279,4.8813831199368e-6,0.004733759444206953,0.000014922836271580309,0.013846443966031075,0.9999904036521912,-0.003340824507176876,1780982858784204417
1780982858889308472,1.234890646628628e-6,-0.005073738284409046,-0.000015155598703131545,-0.013561239466071129,1.0000097751617432,0.0033036284148693085,1780982858883607684
1780982858989295667,4.94555843033595e-6,0.004750624764710665,0.00001511618847871432,0.014140005223453045,0.9999904036521912,-0.0034009385854005814,1780982858987641394
1780982859089125570,1.2890415064248373e-6,-0.005090706050395966,-0.000015483536117244512,-0.013230057433247566,1.000009298324585,0.003209036774933338,1780982859084437482
1780982859189522113,5.009596407035133e-6,0.004765091463923454,0.000015324003470595926,0.013842573389410973,0.9999906420707703,-0.003314789617434144,1780982859184748994
1780982859289960389,1.583315565767407e-6,-0.004414972849190235,-0.000040165959944715723,-0.011777402833104134,0.9999603629112244,0.002433170797303319,1780982859286229933
1780982859389122491,5.27351812706911e-6,0.004859950393438339,0.000010747763553808909,0.01776430755853653,0.9999769330024719,-0.004225502256304026,1780982859386397850
1780982859489485185,1.5822040495550027e-6,-0.005184314679354429,-9.59236149356002e-6,-0.013447247445583344,1.0000182390213013,0.0032151066698133945,1780982859485832284
1780982859589791258,5.310090728016803e-6,0.004850646480917931,0.000012530905223684385,0.013801616616547108,0.9999908804893494,-0.0032612390350550413,1780982859586859241
1780982859689967090,1.8643418115971144e-6,-0.004412103909999132,-0.00005905187936150469,-0.012385541573166847,1.0000017881393433,0.0031534696463495493,1780982859687224540
1780982859788908463,5.394271738623502e-6,0.004894454497843981,0.000012475539733713958,0.01424550823867321,0.9999892711639404,-0.0033790969755500555,1780982859788318369
1780982859889004458,1.6297658476105426e-6,-0.005237090401351452,-0.000017003367247525603,-0.0134132644161582,1.000012993812561,0.0031964981462806463,1780982859888687800
1780982859989281537,1.668472464189108e-6,-0.005264052655547857,-0.00001860380871221423,-0.013827415183186531,1.000012755393982,0.003288725158199668,1780982859969064051
1780982860089464452,5.518510079127736e-6,0.004927583504468203,0.0000190672799362801,0.01484727580100298,0.9999875426292419,-0.003496889490634203,1780982860070603539
1780982860189987681,1.803737745831313e-6,-0.005321687087416649,-0.000022343638192978688,-0.013153200969099998,1.0000085830688477,0.003107676049694419,1780982860171314255
1780982860289654615,5.677262379322201e-6,0.004977469798177481,0.000025158078642562032,0.014421230182051659,0.9999963045120239,-0.0033716303296387196,1780982860271985309
1780982860389651705,2.068980620606453e-6,-0.0054266974329948425,-0.00004066079418407753,-0.014005913399159908,0.9999867677688599,0.003269182052463293,1780982860372946231
1780982860489030214,5.9330641306587495e-6,0.005071145482361317,0.00004009783879155293,0.014617622829973698,1.0000637769699097,-0.003377213841304183,1780982860473916189
1780982860589271291,1.6291364772769157e-6,-0.005304535385221243,-0.000045194716221885756,-0.013392003253102303,0.9999189376831055,0.0033809789456427097,1780982860574463152
1780982860689416711,5.151026925886981e-6,0.00496295653283596,0.00002258837230328936,0.014442412182688713,1.0000263452529907,-0.0033897357061505318,1780982860675544978
1780982860789343556,1.1737566865122062e-6,-0.0052995276637375355,-0.00002347156623727642,-0.014112204313278198,0.999981164932251,0.00333399954251945,1780982860776574203
1780982860889457565,0.00014343569637276232,0.005116133019328117,1.776389694896352e-6,0.014767938293516636,0.9999787211418152,-0.0031366029288619757,1780982860877861532
1780982860989736991,0.00006120602483861148,-0.005504780914634466,-0.00007949949940666556,-0.01309434324502945,0.9997038841247559,0.003256254130974412,1780982860979002839
1780982861089236148,2.123153308275505e-6,0.005009427201002836,0.000022869660824653693,0.014724327251315117,1.000056505203247,-0.0034209568984806538,1780982861078609155
1780982861189804776,-1.7559215166329523e-6,-0.005370547529309988,-0.000023010145014268346,-0.014176871627569199,0.9999411106109619,0.0032637680415064096,1780982861179136149
1780982861289041481,2.1020152871642495e-6,0.00496792932972312,0.000022836384232505225,0.014692430384457111,1.0000578165054321,-0.0033754578325897455,1780982861279310311
1780982861389083104,-1.7515395711598103e-6,-0.005324192810803652,-0.00002287312781845685,-0.013684459961950779,0.9999424815177917,0.0031160747166723013,1780982861380287809
1780982861489669147,2.0792124360013986e-6,0.004930837545543909,0.000022684129362460226,0.01448186207562685,1.0000559091567993,-0.0032929484732449055,1780982861480711857
1780982861589367803,-1.8598519773149746e-6,-0.0052810851484537125,-0.000028267761081224307,-0.013613843359053135,0.9999241828918457,0.003079563146457076,1780982861581510775
1780982861689477059,1.965292995009804e-6,0.004918517544865608,0.000023054324628901668,0.014238226227462292,1.0000567436218262,-0.0032400141935795546,1780982861682429743
1780982861789703967,-1.8505955949876807e-6,-0.005286280531436205,-0.000023117483578971587,-0.013864777982234955,0.9999415278434753,0.003139512613415718,1780982861782992602
1780982861889811445,1.969020331671345e-6,0.004911886528134346,0.000022720489141647704,0.01441263873130083,1.0000561475753784,-0.0032801504712551832,1780982861883879007
1780982861989827426,-1.8516441286919871e-6,-0.005276896059513092,-0.000022698306565871462,-0.013499794527888298,0.9999450445175171,0.003057153895497322,1780982861984116216
1780982862089438951,1.9660076304717222e-6,0.004901624750345945,0.000022416972569772042,0.014694544486701488,1.0000557899475098,-0.003344464348629117,1780982862084654665
1780982862189136915,-1.4916663531039376e-6,-0.004600579850375652,-0.000026241244995617308,-0.01191465463489294,0.9996889233589172,0.002774929627776146,1780982862185362578
1780982862289796189,2.1014325284340885e-6,0.005080869887024164,0.000013874846445105504,0.014283147640526295,0.9999839663505554,-0.0040175579488277435,1780982862285102602
1780982862389589599,-1.8720353409662494e-6,-0.005441071931272745,-0.000018186805391451344,-0.012394987978041172,0.999921441078186,0.0035615030210465193,1780982862387724556
1780982862489347592,1.9869444258802105e-6,0.005092578008770943,0.000018769065718515776,0.014974999241530895,1.0000481605529785,-0.004209934268146753,1780982862486590894
1780982862589187023,-1.9588028408179525e-6,-0.00535203330218792,-0.000016656576917739585,-0.01348856370896101,0.999967634677887,0.0037409737706184387,1780982862587450969
1780982862688989501,1.927347057062434e-6,0.004898854065686464,0.00001445960697310511,0.013847620226442814,1.0000230073928833,-0.0036759846843779087,1780982862688591212
1780982862789136785,-1.782143385753443e-6,-0.005046714097261429,-3.159036396027659e-6,-0.013190492987632751,1.000072717666626,0.0032755809370428324,1780982862788921035
1780982862889286468,1.859791382230469e-6,0.004740668460726738,0.000011517104212543927,0.013650774024426937,1.0000163316726685,-0.0033907450269907713,1780982862889066257
1780982862989315272,1.8656454585652682e-6,0.004727934021502733,0.000012475235962483566,0.013746803626418114,1.0000163316726685,-0.0034157249610871077,1780982862969619049
1780982863089137569,-1.4981372942202142e-6,-0.0046854387037456036,-0.00003813916919170879,-0.012579631991684437,0.9999310970306396,0.003457637969404459,1780982863070426232
1780982863189869694,1.8435254105497734e-6,0.004725046455860138,0.000015032294868433382,0.014102786779403687,1.0000377893447876,-0.0035129105672240257,1780982863169930195
1780982863289698900,-1.8406387880531838e-6,-0.005038585513830185,-0.00001208083540404914,-0.012924888171255589,0.9999864101409912,0.003215029137209058,1780982863271010990
1780982863389724396,1.8677314983506221e-6,0.004724102560430765,0.000011508949683047831,0.013514301739633083,1.0000096559524536,-0.003362367395311594,1780982863372069424
1780982863489613648,-1.8378721051703906e-6,-0.005035942420363426,-0.000011590732356125955,-0.013363450765609741,0.9999902844429016,0.0033258546609431505,1780982863471897842
1780982863589261759,1.8692586536417366e-6,0.004722382873296738,0.000011491954865050502,0.013331458903849125,1.0000089406967163,-0.0033191810362040997,1780982863573414278
1780982863689434941,-1.8325644077776815e-6,-0.0050348034128546715,-0.000011621718840615358,-0.013116956688463688,0.9999905824661255,0.003266539890319109,1780982863673742798
1780982863789779749,1.872225766419433e-6,0.004721189383417368,0.000011553033800737467,0.01327232550829649,1.0000088214874268,-0.003306514350697398,1780982863775103664
1780982863890004181,-1.9398028143768897e-6,-0.005031823646277189,-0.000010301756447006483,-0.012479196302592754,0.9999911189079285,0.0031288021709769964,1780982863875240517
1780982863989659816,1.904746795844403e-6,0.00471718842163682,0.0000145469639392104,0.013604892417788506,1.0000174045562744,-0.003397733438760042,1780982863975955677
1780982864089603569,-1.8250445918965852e-6,-0.00504578510299325,-0.000011419877409934998,-0.012713258154690266,0.9999947547912598,0.003167858114466071,1780982864076831860
1780982864189223847,1.891805254672363e-6,0.004729186184704304,0.00001137395065597957,0.013598624616861343,1.0000070333480835,-0.003391760401427746,1780982864177371020
1780982864289682941,-1.8131481738237198e-6,-0.00504485284909606,-0.000011528828508744482,-0.013028353452682495,0.9999920129776001,0.003250741632655263,1780982864278040839
1780982864389859168,1.9103586055280175e-6,0.004310904070734978,-2.6996169708581874e-6,0.013412924483418465,0.9999857544898987,-0.003127286210656166,1780982864378196099
1780982864489836839,-1.74791000517871e-6,-0.005179069470614195,-0.00001612965206732042,-0.013100657612085342,0.9999250173568726,0.0034150162246078253,1780982864479043718
1780982864589252967,1.9548645013856003e-6,0.004866562318056822,0.00001432517274224665,0.013975548557937145,1.0000250339508057,-0.0036171141546219587,1780982864579274688
1780982864689433007,-1.8477421690477058e-6,-0.00519733177497983,-0.000012121388863306493,-0.012967195361852646,0.9999908804893494,0.0033570474479347467,1780982864680536990
1780982864789318146,1.9675740077218506e-6,0.004861328285187483,0.000011615804396569729,0.013334340415894985,1.000006079673767,-0.0034427589271217585,1780982864781558559
1780982864889618522,-1.839952233240183e-6,-0.005188836250454187,-0.000011647865903796628,-0.012833838351070881,0.999993622303009,0.0033173104748129845,1780982864881643519
1780982864990088774,1.9664705632749246e-6,0.004852448124438524,0.000011606895895965863,0.013968629762530327,1.0000064373016357,-0.0035995307844132185,1780982864982148190
1780982865089848163,-1.831401959861978e-6,-0.00517673883587122,-0.000011608532986429054,-0.013396489433944225,0.9999934434890747,0.0034533250145614147,1780982865083088181
1780982865189597222,1.9643816813186277e-6,0.00483907014131546,0.000011551639545359649,0.013774768449366093,1.0000061988830566,-0.0035380807239562273,1780982865183848426
1780982865290023991,-1.8210885173175484e-6,-0.005159611348062754,-0.000011473780432424974,-0.013439688831567764,0.9999939203262329,0.0034499848261475563,1780982865284274529
1780982865389802910,1.9601097847044002e-6,0.004820587579160929,0.000011378482668078505,0.013926271349191666,1.0000053644180298,-0.003560454584658146,1780982865385110761
1780982865489006377,-1.809195396162977e-6,-0.005137714557349682,-0.000011460730092949234,-0.013261733576655388,0.9999940991401672,0.003385669318959117,1780982865485331493
1780982865589904347,1.977745796466479e-6,0.004850856028497219,0.00003722921246662736,0.013873876072466373,1.0000967979431152,-0.003697417676448822,1780982865586254995
1780982865689099193,2.0207583020237507e-6,0.004882465116679668,8.030135177250486e-6,0.011520137079060078,0.9999804496765137,-0.0029785032384097576,1780982865671856330
1780982865789554383,-1.8219728872281848e-6,-0.005214401055127382,-0.000011177015949215274,-0.013177881017327309,0.9999975562095642,0.0034209417644888163,1780982865776450239
1780982865888964755,-1.8213146404377767e-6,-0.005214645992964506,-0.00001182980395242339,-0.022572863847017288,0.9999892711639404,0.005857295822352171,1780982865888548796
1780982865989679193,1.999142568820389e-6,0.004879343323409557,0.00001200175847770879,0.014292070642113686,1.0000075101852417,-0.003702276386320591,1780982865987793136
1780982866089531437,-1.8179583776145591e-6,-0.005211370065808296,-0.000011934314898098819,-0.012770934961736202,0.9999931454658508,0.0033129670191556215,1780982866089530207
1780982866189600155,1.9995654838567134e-6,0.004876698832958937,0.00001183461608889047,0.014228492975234985,1.0000064373016357,-0.0036820080131292343,1780982866189426380
1780982866289440538,1.999591404455714e-6,0.004875017795711756,0.000011448341865616385,0.014063299633562565,1.0000053644180298,-0.003636834677308798,1780982866270729719
1780982866389377613,-1.8151190488424618e-6,-0.005205229390412569,-0.000011067783816542942,-0.013207399286329746,0.9999966621398926,0.003418424166738987,1780982866371203309
1780982866489600016,1.9975320810772246e-6,0.004867894574999809,0.000010884623407036997,0.01415494829416275,1.0000025033950806,-0.0036526755429804325,1780982866471778320
1780982866589742260,-1.8115260900231078e-6,-0.0051961117424070835,-0.000010811167157953605,-0.01339522935450077,0.9999977946281433,0.0034571608994156122,1780982866579961887
1780982866689742332,1.9932829218305415e-6,0.004855700768530369,0.000010686303539841902,0.014717167243361473,1.0000015497207642,-0.003785413922742009,1780982866679024773
1780982866789608552,-1.8055528698823764e-6,-0.005181710701435804,-0.000010529901373956818,-0.013250036165118217,0.9999990463256836,0.003405363066121936,1780982866777892606
1780982866889466447,1.9252302081440575e-6,0.004845285322517157,0.00003908398502971977,0.013658171519637108,1.0000866651535034,-0.0035238349810242653,1780982866878599793
1780982866989244225,-1.8087348507833667e-6,-0.00517257209867239,-0.000011419874681450892,-0.013039976358413696,0.9999973177909851,0.003326198784634471,1780982866979522120
1780982867089997804,1.879076762634213e-6,0.004894463811069727,-1.2572886589623522e-6,0.013887089677155018,0.9997896552085876,-0.003808443434536457,1780982867080273640
1780982867189648697,-1.7515682202429161e-6,-0.005138648673892021,-0.000012208241059852298,-0.013111280277371407,0.9999759793281555,0.0033395590726286173,1780982867180937969
1780982867289843976,1.982957655854989e-6,0.004800411872565746,0.00001084882296709111,0.01423050556331873,1.0000041723251343,-0.0035946015268564224,1780982867282168842
1780982867389537448,-1.7723817791193142e-6,-0.005125388037413359,-9.75102466327371e-6,-0.012935188598930836,1.000002145767212,0.003252750961109996,1780982867382821257
1780982867489247385,1.9848139345413074e-6,0.004786115605384111,9.914223483065143e-6,0.01456608809530735,0.9999973773956299,-0.0036443506833165884,1780982867483509012
1780982867589435617,-1.7570708905623178e-6,-0.005102952476590872,-9.967923688236624e-6,-0.013246207498013973,1.0000022649765015,0.0032871796283870935,1780982867583799632
1780982867689306947,1.9731451175175607e-6,0.004763245582580566,9.67306004895363e-6,0.013820488937199116,0.9999985098838806,-0.0034409358631819487,1780982867684693841
1780982867789813603,-1.755360472088796e-6,-0.0050857821479439735,-9.714344741951209e-6,-0.013336211442947388,1.0000019073486328,0.0033249463886022568,1780982867785032040
1780982867889695538,1.9693986814672826e-6,0.004756591282784939,9.75473813014105e-6,0.013268478214740753,0.9999980330467224,-0.003310189815238118,1780982867885817019
1780982867989571506,-1.7503348317404743e-6,-0.00507960794493556,-9.780265827430412e-6,-0.012984281405806541,1.0000016689300537,0.0032386896200478077,1780982867985879670
1780982868089527854,1.9701003566297004e-6,0.00475299870595336,9.720326488604769e-6,0.013361785560846329,0.999998152256012,-0.00333385425619781,1780982868087394645
1780982868189125098,-1.7123724092016346e-6,-0.005070355720818043,-0.000012525968486443162,-0.012933490797877312,0.9999695420265198,0.0031999775674194098,1780982868187582189
1780982868289913962,1.9683500340761384e-6,0.004750083200633526,0.000010733484486991074,0.013719688169658184,1.0000052452087402,-0.003424702910706401,1780982868288197684
1780982868389019658,-1.5710005527580506e-6,-0.004634709097445011,-0.00001470022471039556,-0.012235197238624096,0.9999338388442993,0.0031115179881453514,1780982868388730386
1780982868489345379,-1.4730173916177591e-6,-0.004586014896631241,-0.00002007298644457478,-0.01256334874778986,0.999810516834259,0.0032817686442285776,1780982868469638978
1780982868589902882,1.9698127289302647e-6,0.00478435680270195,0.00001632684507058002,0.013451683335006237,1.0000425577163696,-0.0033554318360984325,1780982868571066096
1780982868689688777,-1.7405604921805207e-6,-0.005112889688462019,-0.000011078893294325098,-0.013126802630722523,0.9999930262565613,0.0032633068040013313,1780982868670982720
1780982868789273004,2.001804432438803e-6,0.004785673692822456,0.000010255331289954484,0.014074504375457764,1.0000005960464478,-0.003499005688354373,1780982868771627669
1780982868889806874,-1.7363598772135447e-6,-0.005110298283398151,-0.00001006305046757916,-0.013012311421334743,0.9999998807907104,0.0032325710635632277,1780982868873034232
1780982868989464958,2.006754812100553e-6,0.004787775222212076,0.000010137734534509946,0.013476108200848103,1.0000001192092896,-0.0033499551936984062,1780982868973780905
1780982869089757528,-1.7312539739577915e-6,-0.005111225415021181,-0.000010130419468623586,-0.012798124924302101,0.9999995231628418,0.0031793678645044565,1780982869074065222
1780982869189126978,2.0115771803830285e-6,0.004788877442479134,0.0000105039343907265,0.015131408348679543,1.0000016689300537,-0.003761481959372759,1780982869174339645
1780982869289809920,-1.7740859448167612e-6,-0.005226911045610905,-0.0000316516452585347,-0.012584907934069633,0.9998974204063416,0.0017334455624222755,1780982869274157431
1780982869389639092,2.1049017959740013e-6,0.005192662123590708,1.827242954277608e-6,0.01338815875351429,0.9999862909317017,-0.0029459733050316572,1780982869374919922
1780982869489844267,-1.8188708281741128e-6,-0.005460141226649284,-0.000011476006875454914,-0.013335431925952435,0.9999926686286926,0.0037801465950906277,1780982869476201636
1780982869589391345,2.140161086572334e-6,0.00507666589692235,0.000012331309335422702,0.014303341507911682,1.0000100135803223,-0.003958598710596561,1780982869576554971
1780982869689287134,-1.7761183244147105e-6,-0.005306791048496962,-0.000011634360816970002,-0.0131972162052989,0.9999935626983643,0.00354718416929245,1780982869677677626
1780982869789503162,1.9935532691306435e-6,0.004701910074800253,8.6742011262686e-6,0.014015906490385532,0.9999949336051941,-0.0035059398505836725,1780982869777857005
1780982869889554712,-1.7059833226085175e-6,-0.005116328131407499,-0.000010283620213158429,-0.012647770345211029,0.9999982714653015,0.003139364765956998,1780982869878880022
1780982869989853723,2.0370271158753894e-6,0.004793892148882151,0.000010268852747685742,0.01354314386844635,1.000001072883606,-0.0033636579755693674,1780982869978906027
1780982870089629804,-1.703304519651283e-6,-0.005115100648254156,-0.00001022888955048984,-0.01298744697123766,0.9999988079071045,0.00322276190854609,1780982870079784519
1780982870189517125,2.0396889794938033e-6,0.0047930325381457806,0.000010172819202125538,0.013818378560245037,1.0000008344650269,-0.0034313988871872425,1780982870180845020
1780982870289612877,-1.6996136764646508e-6,-0.00511388061568141,-0.00001005101057671709,-0.013214905746281147,0.9999993443489075,0.003278086893260479,1780982870280559642
1780982870389301272,2.042500454990659e-6,0.004791943822056055,0.000010012204256781843,0.013638334348797798,1.000000238418579,-0.003385822754353285,1780982870381512941
1780982870490151753,-1.6955241335381288e-6,-0.005112445447593927,-9.9371318356134e-6,-0.013122531585395336,0.9999998211860657,0.0032541246619075537,1780982870482244551
1780982870589144199,2.0453828710742528e-6,0.00479093287140131,0.000010013358405558392,0.01367355789989233,1.0000003576278687,-0.0033932840451598167,1780982870583440992
1780982870689439497,-1.6911982356759836e-6,-0.005110252648591995,-9.984976713894866e-6,-0.013088741339743137,0.9999992251396179,0.003244729246944189,1780982870684555512
1780982870789812039,1.9694423372129677e-6,0.004834023769944906,5.312134021551174e-7,0.013029182329773903,1.0000590085983276,-0.0031429522205144167,1780982870784797030
1780982870889601616,-1.6814293530842406e-6,-0.005110698752105236,-8.58422845340101e-6,-0.013214914128184319,1.0000051259994507,0.003277505747973919,1780982870885706989
1780982870989656635,2.059408643617644e-6,0.004794930573552847,9.863206287263893e-6,0.014116635546088219,0.9999998211860657,-0.0035017752088606358,1780982870986916290
1780982871089978006,-1.6803810467536096e-6,-0.005113810766488314,-9.919711374095641e-6,-0.013270597904920578,0.9999992251396179,0.0032884131651371717,1780982871087395457
1780982871189681045,2.0614916138583794e-6,0.00479447515681386,9.94353376881918e-6,0.013805532827973366,1.0000007152557373,-0.0034235685598105192,1780982871188007507
1780982871288926650,-1.6770187585279928e-6,-0.005113119259476662,-9.879049684968777e-6,-0.013252460397779942,0.9999991655349731,0.003282739780843258,1780982871288627731
1780982871389575613,-1.6756499690018245e-6,-0.005112643353641033,-9.860875252343249e-6,-0.013242796063423157,0.9999991655349731,0.00327969528734684,1780982871369767530
1780982871489810763,2.0650195438065566e-6,0.004794222302734852,9.994064384954982e-6,0.013937422074377537,1.000001311302185,-0.0034552623983472586,1780982871471084829
1780982871589308371,-1.672073949521291e-6,-0.005110817030072212,-0.000010056741302832961,-0.013144485652446747,0.9999979734420776,0.0032546529546380043,1780982871571695179
1780982871689847921,2.0670222511398606e-6,0.004793441388756037,0.000010168230801355094,0.013621875084936619,1.0000022649765015,-0.003376629902049899,1780982871673152579
1780982871789233226,-1.8411968767395592e-6,-0.0055190701968967915,-0.000016340352885890752,-0.013927333988249302,0.9999336004257202,0.003298046998679638,1780982871773524329
1780982871889704373,2.221456497863983e-6,0.005140646360814571,0.000014023326912138145,0.014811624772846699,1.0000251531600952,-0.00356098311021924,1780982871874380773
1780982871989954583,-1.8411361679682159e-6,-0.005522012244910002,-0.000012165834050392732,-0.01424199528992176,0.9999787211418152,0.0034143361262977123,1780982871975186246
1780982872089536679,2.214927235399955e-6,0.005135748069733381,0.000010524614481255412,0.014662282541394234,1.000016689300537,-0.0035235604736953974,1780982872075892718
1780982872189194596,-1.8600110252009472e-6,-0.005510564427822828,-8.950260053097736e-6,-0.01413685642182827,0.999986469745636,0.0033875107765197754,1780982872176463873
1780982872289382306,2.3145557861425914e-6,0.005504850298166275,-0.000030057093681534752,0.014385849237442017,0.9998247623443604,-0.0024158009327948093,1780982872277720779
1780982872389095324,-1.9286164842924336e-6,-0.005670635029673576,-8.553513907827437e-6,-0.014493230730295181,1.0000064373016357,0.003612589556723833,1780982872378313424
1780982872489716356,2.213320158261922e-6,0.005248500965535641,0.000010571416169113945,0.0153815234079957,1.0000038146972656,-0.003843724261969328,1780982872478886439
1780982872589632063,-1.5018845260783564e-6,-0.004765669349581003,-0.00002365908403589856,-0.01344777550548315,0.9999917149543762,0.003203942673280835,1780982872579199272
1780982872689861650,2.180148612751509e-6,0.005231521558016539,0.00001822934063966386,0.014931910671293736,1.000038981437683,-0.0037656771019101143,1780982872680151316
1780982872789803094,-1.9098490611213492e-6,-0.005609576124697924,-0.000012741170394292567,-0.01434408687055111,0.9999975562095642,0.003614813322201371,1780982872781090523
1780982872889466951,2.1544813080254244e-6,0.0051814173348248005,0.000012838348993682303,0.014714008197188377,1.0000050067901611,-0.0037169649731367826,1780982872881585275
