timestamp_ns,joint_1_pos,joint_2_pos,joint_3_pos,joint_4_pos,joint_5_pos,joint_6_pos,joint_1_vel,joint_2_vel,joint_3_vel,joint_4_vel,joint_5_vel,joint_6_vel,joint_1_current,joint_2_current,joint_3_current,joint_4_current,joint_5_current,joint_6_current,joint_1_temp,joint_2_temp,joint_3_temp,joint_4_temp,joint_5_temp,joint_6_temp,bus_voltage,bus_current,accel_x,accel_y,accel_z,timestamp_ns
1777925524612885564,275.4489440917969,184.6630859375,81.5892562866211,243.10496520996094,87.38294982910156,74.61874389648438,0.0,0.0,0.0,0.0,0.0,0.0,0.0,0.0,0.4972280263900757,0.0,0.0,0.0,24.1200008392334,23.229999542236328,22.989999771118164,22.670000076293945,22.829999923706055,23.469999313354492,23.779165267944336,0.05156223848462105,-0.16367316246032715,0.04309018328785896,-1.1466610431671143,1777925524607370923
1777925524713080042,275.4488220214844,184.66319274902344,81.5892562866211,243.10496520996094,87.38294982910156,74.61874389648438,0.0,0.0,0.0,0.0,0.0,0.0,0.0,0.0,0.47316858172416687,0.0,0.0,0.0,24.1200008392334,23.149999618530273,23.06999969482422,22.670000076293945,22.829999923706055,23.469999313354492,23.779165267944336,0.059618838131427765,-0.1647329330444336,0.03886779025197029,-1.146668553352356,1777925524707453565
1777925524813113644,275.4488220214844,184.6630859375,81.5892562866211,243.10496520996094,87.38294982910156,74.61874389648438,0.0,0.0,0.0,0.0,0.0,0.0,0.0,0.0,0.47316858172416687,0.0,0.0,0.0,24.1200008392334,23.229999542236328,22.989999771118164,22.670000076293945,22.829999923706055,23.549999237060547,23.779165267944336,0.0483395978808403,-0.16367395222187042,0.043149787932634354,-1.1472053527832031,1777925524807571503
1777925524913147802,275.4488220214844,184.6630859375,81.5892562866211,243.10496520996094,87.38294982910156,74.61874389648438,0.0,0.0,0.0,0.0,0.0,0.0,0.0,0.0,0.5212874412536621,0.0,0.0,0.0,24.200000762939453,23.149999618530273,22.989999771118164,22.670000076293945,22.829999923706055,23.469999313354492,23.779165267944336,0.06203582137823105,-0.16437530517578125,0.041724443435668945,-1.1468250751495361,1777925524907601383
1777925525013059475,275.4488220214844,184.6630859375,81.5892562866211,243.10496520996094,87.38294982910156,74.61874389648438,0.0,0.0,0.0,0.0,0.0,0.0,0.0,0.0,0.4811883866786957,0.0,0.0,0.0,24.1200008392334,23.149999618530273,23.06999969482422,22.75,22.90999984741211,23.549999237060547,23.779165267944336,0.05317355692386627,-0.16171932220458984,0.04387298971414566,-1.1486752033233643,1777925525007690487
1777925525113152505,275.4488220214844,184.6630859375,81.5892562866211,243.10496520996094,87.38294982910156,74.61874389648438,0.0,0.0,0.0,0.0,0.0,0.0,0.0,0.0,0.5052478313446045,0.0,0.0,0.0,24.1200008392334,23.229999542236328,22.989999771118164,22.670000076293945,22.829999923706055,23.469999313354492,23.779165267944336,0.049950920045375824,-0.16357699036598206,0.04233638197183609,-1.147862195968628,1777925525107777962
1777925525213075771,275.4488220214844,184.6630859375,81.5892562866211,243.10496520996094,87.38294982910156,74.61874389648438,0.0,0.0,0.0,0.0,0.0,0.0,0.0,0.0,0.5052478313446045,0.0,0.0,0.0,24.1200008392334,23.229999542236328,22.90999984741211,22.670000076293945,22.829999923706055,23.549999237060547,23.779165267944336,0.05156223848462105,-0.16251762211322784,0.043209392577409744,-1.1465938091278076,1777925525207840843
1777925525313119299,275.4488220214844,184.6630859375,81.5892562866211,243.10496520996094,87.38294982910156,74.61874389648438,0.0,0.0,0.0,0.0,0.0,0.0,0.0,0.0,0.4972280263900757,0.0,0.0,0.0,24.200000762939453,23.149999618530273,22.989999771118164,22.75,22.90999984741211,23.549999237060547,23.779165267944336,0.049950920045375824,-0.1643601953983307,0.03996411710977554,-1.146362543106079,1777925525307944652
1777925525413055917,275.4488220214844,184.6630859375,81.5892562866211,243.10496520996094,87.38294982910156,74.61874389648438,0.0,0.0,0.0,0.0,0.0,0.0,0.0,0.0,0.5453468561172485,0.0,0.0,0.0,24.1200008392334,23.229999542236328,22.989999771118164,22.75,22.829999923706055,23.389999389648438,23.779165267944336,0.049950920045375824,-0.16503453254699707,0.04279891401529312,-1.1446988582611084,1777925525407984125
1777925525513138429,275.4488220214844,184.6630859375,81.5892562866211,243.10496520996094,87.38294982910156,74.61874389648438,0.0,0.0,0.0,0.0,0.0,0.0,0.0,0.0,0.4972280263900757,0.0,0.0,0.0,24.1200008392334,23.309999465942383,22.989999771118164,22.670000076293945,22.829999923706055,23.469999313354492,23.779165267944336,0.05236789956688881,-0.16294994950294495,0.04110574722290039,-1.1452213525772095,1777925525508047098
1777925850190825793,275.4489440917969,184.6633758544922,81.5888671875,243.10496520996094,87.40780639648438,74.61874389648438,0.0,0.0,0.0,0.0,0.0,0.0,0.0,0.0,0.48056793212890625,0.0,0.0,0.0,24.440000534057617,23.709999084472656,24.200000762939453,23.309999465942383,23.549999237060547,24.360000610351562,23.80156707763672,0.050756581127643585,-0.16081848740577698,0.029090244323015213,-1.1440129280090332,1777925850189547137
1777925850292403118,275.4489440917969,184.66348266601562,81.5888671875,243.10496520996094,87.40780639648438,74.61874389648438,0.0,0.0,0.0,0.0,0.0,0.0,0.0,0.0,0.48056793212890625,0.0,0.0,0.0,24.520000457763672,23.709999084472656,24.200000762939453,23.309999465942383,23.549999237060547,24.440000534057617,23.80156707763672,0.04350563883781433,-0.16223986446857452,0.026161272078752518,-1.1441389322280884,1777925850291539687
1777925850392401953,275.4489440917969,184.66348266601562,81.5888671875,243.10496520996094,87.40780639648438,74.61874389648438,0.0,0.0,0.0,0.0,0.0,0.0,0.0,0.0,0.5045963525772095,0.0,0.0,0.0,24.520000457763672,23.6299991607666,24.200000762939453,23.309999465942383,23.549999237060547,24.360000610351562,23.80156707763672,0.04753393679857254,-0.16207972168922424,0.02860824204981327,-1.145855188369751,1777925850389796327
1777925850492399288,275.4489440917969,184.66348266601562,81.5888671875,243.10496520996094,87.40780639648438,74.61874389648438,0.0,0.0,0.0,0.0,0.0,0.0,0.0,0.0,0.5126057863235474,0.0,0.0,0.0,24.520000457763672,23.6299991607666,24.280000686645508,23.309999465942383,23.549999237060547,24.360000610351562,23.80156707763672,0.05156223848462105,-0.16196846961975098,0.02851128578186035,-1.1447103023529053,1777925850488549581
1777925850592411641,275.4489440917969,184.66357421875,81.5888671875,243.10496520996094,87.40780639648438,74.61874389648438,0.0,0.0,0.0,0.0,0.0,0.0,0.0,0.0,0.4885774254798889,0.0,0.0,0.0,24.520000457763672,23.6299991607666,24.280000686645508,23.309999465942383,23.549999237060547,24.440000534057617,23.80156707763672,0.049950920045375824,-0.16190925240516663,0.02874135971069336,-1.1454410552978516,1777925850588201950
1777925850692433976,275.4489440917969,184.6633758544922,81.5888671875,243.10496520996094,87.40780639648438,74.61874389648438,0.0,0.0,0.0,0.0,0.0,0.0,0.0,0.0,0.4965868890285492,0.0,0.0,0.0,24.520000457763672,23.6299991607666,24.200000762939453,23.309999465942383,23.549999237060547,24.440000534057617,23.80156707763672,0.05156223848462105,-0.1618647575378418,0.029690662398934364,-1.1439461708068848,1777925850688258804
1777925850792407996,275.4489440917969,184.66348266601562,81.5888671875,243.10496520996094,87.40780639648438,74.61874389648438,0.0,0.0,0.0,0.0,0.0,0.0,0.0,0.0,0.5045963525772095,0.0,0.0,0.0,24.520000457763672,23.6299991607666,24.280000686645508,23.309999465942383,23.6299991607666,24.440000534057617,23.80156707763672,0.05397921800613403,-0.1611228734254837,0.027116138488054276,-1.1462695598602295,1777925850788847735
1777925850892406127,275.4489440917969,184.66348266601562,81.5888671875,243.10496520996094,87.40780639648438,74.61874389648438,0.0,0.0,0.0,0.0,0.0,0.0,0.0,0.0,0.48056793212890625,0.0,0.0,0.0,24.520000457763672,23.6299991607666,24.1200008392334,23.309999465942383,23.469999313354492,24.280000686645508,23.80156707763672,0.05397921800613403,-0.1615075170993805,0.03023306466639042,-1.1473054885864258,1777925850889280943
1777925850992411240,275.4489440917969,184.66357421875,81.5888671875,243.10496520996094,87.40780639648438,74.61874389648438,0.0,0.0,0.0,0.0,0.0,0.0,0.0,0.0,0.5045963525772095,0.0,0.0,0.0,24.520000457763672,23.6299991607666,24.200000762939453,23.389999389648438,23.6299991607666,24.280000686645508,23.80156707763672,0.049950920045375824,-0.16176660358905792,0.025902986526489258,-1.1452233791351318,1777925850988586977
1777925851092410760,275.4489440917969,184.66348266601562,81.5888671875,243.10496520996094,87.40780639648438,74.61874389648438,0.0,0.0,0.0,0.0,0.0,0.0,0.0,0.0,0.48056793212890625,0.0,0.0,0.0,24.520000457763672,23.549999237060547,24.280000686645508,23.309999465942383,23.549999237060547,24.440000534057617,23.80156707763672,0.04914525896310806,-0.1602868139743805,0.029653310775756836,-1.144589900970459,1777925851088920740
1777925851192411762,275.4489440917969,184.6633758544922,81.5888671875,243.10496520996094,87.40780639648438,74.61874389648438,0.0,0.0,0.0,0.0,0.0,0.0,0.0,0.0,0.52061527967453,0.0,0.0,0.0,24.520000457763672,23.6299991607666,24.280000686645508,23.309999465942383,23.469999313354492,24.360000610351562,23.80156707763672,0.05156223848462105,-0.16085663437843323,0.029549598693847656,-1.1447083950042725,1777925851189237651
1777925851292410800,275.4489440917969,184.66348266601562,81.5888671875,243.10496520996094,87.40780639648438,74.61874389648438,0.0,0.0,0.0,0.0,0.0,0.0,0.0,0.0,0.4885774254798889,0.0,0.0,0.0,24.520000457763672,23.6299991607666,24.280000686645508,23.309999465942383,23.549999237060547,24.360000610351562,23.80156707763672,0.05317355692386627,-0.16115227341651917,0.022862354293465614,-1.1427406072616577,1777925851291308905
1777925851392421839,275.4489440917969,184.66348266601562,81.5888671875,243.10496520996094,87.40780639648438,74.61874389648438,0.0,0.0,0.0,0.0,0.0,0.0,0.0,0.0,0.4885774254798889,0.0,0.0,0.0,24.520000457763672,23.6299991607666,24.280000686645508,23.309999465942383,23.549999237060547,24.360000610351562,23.80156707763672,0.06123016029596329,-0.16063451766967773,0.026597976684570312,-1.1448637247085571,1777925851390174344
1777925851492431026,275.4489440917969,184.66357421875,81.5888671875,243.10496520996094,87.40780639648438,74.61874389648438,0.0,0.0,0.0,0.0,0.0,0.0,0.0,0.0,0.4965868890285492,0.0,0.0,0.0,24.520000457763672,23.6299991607666,24.360000610351562,23.309999465942383,23.549999237060547,24.280000686645508,23.80156707763672,0.05156223848462105,-0.16181984543800354,0.025480985641479492,-1.1425260305404663,1777925851491208389
1777925851592436212,275.4489440917969,184.66348266601562,81.5888671875,243.10496520996094,87.40780639648438,74.61874389648438,0.0,0.0,0.0,0.0,0.0,0.0,0.0,0.0,0.48056793212890625,0.0,0.0,0.0,24.440000534057617,23.709999084472656,24.280000686645508,23.309999465942383,23.549999237060547,24.360000610351562,23.80156707763672,0.05156223848462105,-0.16217589378356934,0.029846031218767166,-1.1459417343139648,1777925851589093767
1777925851692423288,275.4489440917969,184.6633758544922,81.5888671875,243.10496520996094,87.40780639648438,74.61874389648438,0.0,0.0,0.0,0.0,0.0,0.0,0.0,0.0,0.48056793212890625,0.0,0.0,0.0,24.520000457763672,23.6299991607666,24.280000686645508,23.389999389648438,23.549999237060547,24.440000534057617,23.80156707763672,0.05236789956688881,-0.1597428321838379,0.027751922607421875,-1.146350622177124,1777925851691860748
1777925851792445530,275.4489440917969,184.66348266601562,81.5888671875,243.10496520996094,87.40780639648438,74.61874389648438,0.0,0.0,0.0,0.0,0.0,0.0,0.0,0.0,0.5045963525772095,0.0,0.0,0.0,24.520000457763672,23.6299991607666,24.200000762939453,23.389999389648438,23.469999313354492,24.440000534057617,23.80156707763672,0.05236789956688881,-0.16206979751586914,0.026502210646867752,-1.1436505317687988,1777925851789038844
1777925851892428976,275.4489440917969,184.66348266601562,81.5888671875,243.10496520996094,87.40780639648438,74.61874389648438,0.0,0.0,0.0,0.0,0.0,0.0,0.0,0.0,0.4965868890285492,0.0,0.0,0.0,24.520000457763672,23.6299991607666,24.200000762939453,23.229999542236328,23.6299991607666,24.360000610351562,23.80156707763672,0.059618838131427765,-0.1617530882358551,0.030677318572998047,-1.1445605754852295,1777925851889264365
1777925851992450459,275.4489440917969,184.66348266601562,81.5888671875,243.10496520996094,87.40780639648438,74.61874389648438,0.0,0.0,0.0,0.0,0.0,0.0,0.0,0.0,0.4965868890285492,0.0,0.0,0.0,24.440000534057617,23.6299991607666,24.280000686645508,23.389999389648438,23.549999237060547,24.440000534057617,23.80156707763672,0.050756581127643585,-0.1619068682193756,0.027493635192513466,-1.1457366943359375,1777925851989439257
1777925852092426340,275.4489440917969,184.66348266601562,81.5888671875,243.10496520996094,87.40780639648438,74.61874389648438,0.0,0.0,0.0,0.0,0.0,0.0,0.0,0.0,0.4965868890285492,0.0,0.0,0.0,24.440000534057617,23.6299991607666,24.280000686645508,23.389999389648438,23.549999237060547,24.440000534057617,23.80156707763672,0.050756581127643585,-0.1619068682193756,0.027493635192513466,-1.1457366943359375,1777925851989439257
1777925852191732280,275.4489440917969,184.66357421875,81.5888671875,243.10496520996094,87.40780639648438,74.61874389648438,0.0,0.0,0.0,0.0,0.0,0.0,0.0,0.0,0.5045963525772095,0.0,0.0,0.0,24.520000457763672,23.549999237060547,24.280000686645508,23.309999465942383,23.549999237060547,24.440000534057617,23.80156707763672,0.05317356064915657,-0.16189971566200256,0.028528768569231033,-1.1435842514038086,1777925852094458592
1777925852292439690,275.4489440917969,184.66357421875,81.5888671875,243.10496520996094,87.40780639648438,74.61874389648438,0.0,0.0,0.0,0.0,0.0,0.0,0.0,0.0,0.5126057863235474,0.0,0.0,0.0,24.520000457763672,23.6299991607666,24.280000686645508,23.309999465942383,23.549999237060547,24.440000534057617,23.80156707763672,0.05720185860991478,-0.1608927994966507,0.027404624968767166,-1.1461658477783203,1777925852289769639
1777925852392444579,275.4489440917969,184.66357421875,81.5888671875,243.10496520996094,87.40780639648438,74.61874389648438,0.0,0.0,0.0,0.0,0.0,0.0,0.0,0.0,0.5526531338691711,0.0,0.0,0.0,24.520000457763672,23.6299991607666,24.280000686645508,23.309999465942383,23.549999237060547,24.360000610351562,23.80156707763672,0.05720185860991478,-0.16169984638690948,0.028928915038704872,-1.1439982652664185,1777925852389885787
1777925852492311133,275.4489440917969,184.66348266601562,81.5888671875,243.10496520996094,87.40780639648438,74.61874389648438,0.0,0.0,0.0,0.0,0.0,0.0,0.0,0.0,0.4885774254798889,0.0,0.0,0.0,24.520000457763672,23.549999237060547,24.200000762939453,23.309999465942383,23.6299991607666,24.440000534057617,23.80156707763672,0.05075657740235329,-0.16244728863239288,0.027818679809570312,-1.1454594135284424,1777925852491045885
1777925852592317873,275.4489440917969,184.66357421875,81.5888671875,243.10496520996094,87.40780639648438,74.61874389648438,0.0,0.0,0.0,0.0,0.0,0.0,0.0,0.0,0.6087194085121155,0.0,0.0,0.0,24.520000457763672,23.6299991607666,24.280000686645508,23.389999389648438,23.549999237060547,24.440000534057617,23.80156707763672,0.05720185860991478,-0.16249139606952667,0.026398897171020508,-1.1435250043869019,1777925852590836717
1777925852692316520,275.4489440917969,184.66357421875,81.5888671875,243.10496520996094,87.40780639648438,74.61874389648438,0.0,0.0,0.0,0.0,0.0,0.0,0.0,0.0,0.4965868890285492,0.0,0.0,0.0,24.440000534057617,23.6299991607666,24.280000686645508,23.389999389648438,23.549999237060547,24.360000610351562,23.80156707763672,0.05075657740235329,-0.16186276078224182,0.02858877182006836,-1.1447826623916626,1777925852689862303
1777925852792311390,275.4489440917969,184.6633758544922,81.5888671875,243.10496520996094,87.40780639648438,74.61874389648438,0.0,0.0,0.0,0.0,0.0,0.0,0.0,0.0,0.4885774254798889,0.0,0.0,0.0,24.520000457763672,23.709999084472656,24.280000686645508,23.309999465942383,23.549999237060547,24.440000534057617,23.800867080688477,0.049950916320085526,-0.1619068682193756,0.02816319465637207,-1.1458698511123657,1777925852789973118
1777925852892313482,275.4489440917969,184.66348266601562,81.5888671875,243.10496520996094,87.40780639648438,74.61874389648438,0.0,0.0,0.0,0.0,0.0,0.0,0.0,0.0,0.47255846858024597,0.0,0.0,0.0,24.520000457763672,23.549999237060547,24.280000686645508,23.309999465942383,23.549999237060547,24.360000610351562,23.800867080688477,0.05156223848462105,-0.16168513894081116,0.027959346771240234,-1.146202802658081,1777925852889932450
1777925852992316778,275.4489440917969,184.66348266601562,81.5888671875,243.10496520996094,87.40780639648438,74.61874389648438,0.0,0.0,0.0,0.0,0.0,0.0,0.0,0.0,0.44853007793426514,0.0,0.0,0.0,24.520000457763672,23.709999084472656,24.280000686645508,23.309999465942383,23.549999237060547,24.360000610351562,23.800867080688477,0.04672827944159508,-0.1620105803012848,0.030054647475481033,-1.143917202949524,1777925852990197951
1777925853092318184,275.4489440917969,184.66348266601562,81.5888671875,243.10496520996094,87.40780639648438,74.61874389648438,0.0,0.0,0.0,0.0,0.0,0.0,0.0,0.0,0.5286247134208679,0.0,0.0,0.0,24.520000457763672,23.6299991607666,24.280000686645508,23.389999389648438,23.549999237060547,24.440000534057617,23.800867080688477,0.05720185860991478,-0.1612710952758789,0.026095310226082802,-1.1438349485397339,1777925853090524767
1777925853192342888,275.4489440917969,184.66348266601562,81.5888671875,243.10496520996094,87.40780639648438,74.61874389648438,0.0,0.0,0.0,0.0,0.0,0.0,0.0,0.0,0.5286247134208679,0.0,0.0,0.0,24.520000457763672,23.6299991607666,24.280000686645508,23.389999389648438,23.549999237060547,24.440000534057617,23.800867080688477,0.05720185860991478,-0.1612710952758789,0.026095310226082802,-1.1438349485397339,1777925853090524767
1777925853292324165,275.4489440917969,184.6633758544922,81.5888671875,243.10496520996094,87.40780639648438,74.61874389648438,0.0,0.0,0.0,0.0,0.0,0.0,0.0,0.0,0.4965868890285492,0.0,0.0,0.0,24.440000534057617,23.6299991607666,24.280000686645508,23.389999389648438,23.549999237060547,24.360000610351562,23.800867080688477,0.05075657740235329,-0.16282439231872559,0.03006974793970585,-1.145285725593567,1777925853286348613
1777925853392330256,275.4489440917969,184.66357421875,81.5888671875,243.10496520996094,87.40780639648438,74.61874389648438,0.0,0.0,0.0,0.0,0.0,0.0,0.0,0.0,0.5126057863235474,0.0,0.0,0.0,24.520000457763672,23.6299991607666,24.280000686645508,23.309999465942383,23.469999313354492,24.360000610351562,23.800867080688477,0.04914525896310806,-0.16183295845985413,0.02686421014368534,-1.1454963684082031,1777925853386430187
1777925853492328959,275.4489440917969,184.66348266601562,81.5888671875,243.10496520996094,87.40780639648438,74.61874389648438,0.0,0.0,0.0,0.0,0.0,0.0,0.0,0.0,0.5126057863235474,0.0,0.0,0.0,24.520000457763672,23.6299991607666,24.200000762939453,23.309999465942383,23.469999313354492,24.440000534057617,23.800867080688477,0.059618838131427765,-0.16260981559753418,0.026367107406258583,-1.1420674324035645,1777925853486477816
1777925853592333829,275.4489440917969,184.66348266601562,81.5888671875,243.10496520996094,87.40780639648438,74.61874389648438,0.0,0.0,0.0,0.0,0.0,0.0,0.0,0.0,0.5126057863235474,0.0,0.0,0.0,24.520000457763672,23.6299991607666,24.200000762939453,23.309999465942383,23.469999313354492,24.440000534057617,23.800867080688477,0.059618838131427765,-0.16260981559753418,0.026367107406258583,-1.1420674324035645,1777925853486477816
1777925853692330458,275.4489440917969,184.66348266601562,81.5888671875,243.10496520996094,87.40780639648438,74.61874389648438,0.0,0.0,0.0,0.0,0.0,0.0,0.0,0.0,0.5126057863235474,0.0,0.0,0.0,24.520000457763672,23.6299991607666,24.280000686645508,23.309999465942383,23.549999237060547,24.440000534057617,23.800867080688477,0.05397921800613403,-0.1608343869447708,0.02832968905568123,-1.1463141441345215,1777925853686615223
1777925853792330235,275.4489440917969,184.66348266601562,81.5888671875,243.10496520996094,87.40780639648438,74.61874389648438,0.0,0.0,0.0,0.0,0.0,0.0,0.0,0.0,0.5126057863235474,0.0,0.0,0.0,24.520000457763672,23.6299991607666,24.200000762939453,23.309999465942383,23.469999313354492,24.280000686645508,23.800867080688477,0.05156223848462105,-0.1608343869447708,0.02832968905568123,-1.1463141441345215,1777925853786684963
1777925853892335346,275.4489440917969,184.66348266601562,81.5888671875,243.10496520996094,87.40780639648438,74.61874389648438,0.0,0.0,0.0,0.0,0.0,0.0,0.0,0.0,0.47255846858024597,0.0,0.0,0.0,24.520000457763672,23.549999237060547,24.280000686645508,23.309999465942383,23.469999313354492,24.360000610351562,23.800867080688477,0.05317355692386627,-0.1626320630311966,0.023506084457039833,-1.1453075408935547,1777925853886759852
1777925853992334345,275.4489440917969,184.66348266601562,81.5888671875,243.10496520996094,87.40780639648438,74.61874389648438,0.0,0.0,0.0,0.0,0.0,0.0,0.0,0.0,0.5045963525772095,0.0,0.0,0.0,24.520000457763672,23.6299991607666,24.280000686645508,23.309999465942383,23.469999313354492,24.360000610351562,23.800867080688477,0.05236789584159851,-0.16151466965675354,0.02856612205505371,-1.1442275047302246,1777925853986835148
1777925854092331955,275.4489440917969,184.66357421875,81.5888671875,243.10496520996094,87.40780639648438,74.61874389648438,0.0,0.0,0.0,0.0,0.0,0.0,0.0,0.0,0.5045963525772095,0.0,0.0,0.0,24.520000457763672,23.709999084472656,24.280000686645508,23.309999465942383,23.549999237060547,24.360000610351562,23.800867080688477,0.04753393679857254,-0.16103386878967285,0.02750794030725956,-1.1444274187088013,1777925854086908185
1777925854192339603,275.4489440917969,184.66348266601562,81.5888671875,243.10496520996094,87.40780639648438,74.61874389648438,0.0,0.0,0.0,0.0,0.0,0.0,0.0,0.0,0.5045963525772095,0.0,0.0,0.0,24.520000457763672,23.549999237060547,24.280000686645508,23.229999542236328,23.6299991607666,24.440000534057617,23.800867080688477,0.0483395978808403,-0.16264677047729492,0.02673904038965702,-1.1429476737976074,1777925854186918925
1777925854292339862,275.4489440917969,184.66357421875,81.5888671875,243.10496520996094,87.40780639648438,74.61874389648438,0.0,0.0,0.0,0.0,0.0,0.0,0.0,0.0,0.5286247134208679,0.0,0.0,0.0,24.440000534057617,23.6299991607666,24.200000762939453,23.309999465942383,23.549999237060547,24.360000610351562,23.800867080688477,0.05397921800613403,-0.16217589378356934,0.029720067977905273,-1.1450934410095215,1777925854287046203
1777925854392336287,275.4489440917969,184.6633758544922,81.5888671875,243.10496520996094,87.40780639648438,74.61874389648438,0.0,0.0,0.0,0.0,0.0,0.0,0.0,0.0,0.4965868890285492,0.0,0.0,0.0,24.440000534057617,23.6299991607666,24.280000686645508,23.389999389648438,23.549999237060547,24.440000534057617,23.800867080688477,0.06606411933898926,-0.16130764782428741,0.02482970431447029,-1.1443463563919067,1777925854387131054
1777925854492341323,275.4489440917969,184.6633758544922,81.5888671875,243.10496520996094,87.40780639648438,74.61874389648438,0.0,0.0,0.0,0.0,0.0,0.0,0.0,0.0,0.5045963525772095,0.0,0.0,0.0,24.440000534057617,23.549999237060547,24.280000686645508,23.389999389648438,23.549999237060547,24.440000534057617,23.800867080688477,0.05236789956688881,-0.1612488329410553,0.025728145614266396,-1.1434510946273804,1777925854487171943
1777925854592363452,275.4489440917969,184.6633758544922,81.5888671875,243.10496520996094,87.40780639648438,74.61874389648438,0.0,0.0,0.0,0.0,0.0,0.0,0.0,0.0,0.48056793212890625,0.0,0.0,0.0,24.520000457763672,23.6299991607666,24.280000686645508,23.309999465942383,23.549999237060547,24.440000534057617,23.800867080688477,0.06848109513521194,-0.16082683205604553,0.022862354293465614,-1.143308401107788,1777925854587230109
1777925854692343544,275.4489440917969,184.66348266601562,81.5888671875,243.10496520996094,87.40780639648438,74.61874389648438,0.0,0.0,0.0,0.0,0.0,0.0,0.0,0.0,0.4965868890285492,0.0,0.0,0.0,24.440000534057617,23.6299991607666,24.280000686645508,23.229999542236328,23.6299991607666,24.440000534057617,23.800867080688477,0.05800751969218254,-0.16235072910785675,0.02657572366297245,-1.1432806253433228,1777925854687356165
1777925854792341914,275.4489440917969,184.66357421875,81.5888671875,243.10496520996094,87.40780639648438,74.61874389648438,0.0,0.0,0.0,0.0,0.0,0.0,0.0,0.0,0.5126057863235474,0.0,0.0,0.0,24.520000457763672,23.6299991607666,24.280000686645508,23.309999465942383,23.6299991607666,24.440000534057617,23.800867080688477,0.05800751969218254,-0.16267617046833038,0.03040790557861328,-1.14271879196167,1777925854787405701
1777925854892351969,275.4489440917969,184.66348266601562,81.5888671875,243.10496520996094,87.40780639648438,74.61874389648438,0.0,0.0,0.0,0.0,0.0,0.0,0.0,0.0,0.5126057863235474,0.0,0.0,0.0,24.600000381469727,23.6299991607666,24.280000686645508,23.309999465942383,23.549999237060547,24.360000610351562,23.800867080688477,0.05800751969218254,-0.16145586967468262,0.027330318465828896,-1.1423782110214233,1777925854887485071
1777925854992341690,275.4489440917969,184.66348266601562,81.5888671875,243.10496520996094,87.40780639648438,74.61874389648438,0.0,0.0,0.0,0.0,0.0,0.0,0.0,0.0,0.5366342067718506,0.0,0.0,0.0,24.520000457763672,23.6299991607666,24.200000762939453,23.389999389648438,23.549999237060547,24.440000534057617,23.800867080688477,0.054784879088401794,-0.16094525158405304,0.02742687799036503,-1.1427922248840332,1777925854987530682
1777925855092349819,275.4489440917969,184.66348266601562,81.5888671875,243.10496520996094,87.40780639648438,74.61874389648438,0.0,0.0,0.0,0.0,0.0,0.0,0.0,0.0,0.47255846858024597,0.0,0.0,0.0,24.440000534057617,23.6299991607666,24.280000686645508,23.389999389648438,23.469999313354492,24.360000610351562,23.800867080688477,0.04753393679857254,-0.16076762974262238,0.025318065658211708,-1.1427886486053467,1777925855087605589
1777925855192353189,275.4489440917969,184.6633758544922,81.5888671875,243.10496520996094,87.40780639648438,74.61874389648438,0.0,0.0,0.0,0.0,0.0,0.0,0.0,0.0,0.5126057863235474,0.0,0.0,0.0,24.520000457763672,23.6299991607666,24.200000762939453,23.389999389648438,23.469999313354492,24.440000534057617,23.800867080688477,0.04914525896310806,-0.16218066215515137,0.02690156176686287,-1.1432511806488037,1777925855187687922
1777925855292355336,275.4489440917969,184.66348266601562,81.5888671875,243.10496520996094,87.40780639648438,74.61874389648438,0.0,0.0,0.0,0.0,0.0,0.0,0.0,0.0,0.4965868890285492,0.0,0.0,0.0,24.520000457763672,23.6299991607666,24.200000762939453,23.309999465942383,23.549999237060547,24.360000610351562,23.800867080688477,0.049950920045375824,-0.16192157566547394,0.028314590454101562,-1.1424548625946045,1777925855287768200
1777925855392351114,275.4489440917969,184.66348266601562,81.5888671875,243.10496520996094,87.40780639648438,74.61874389648438,0.0,0.0,0.0,0.0,0.0,0.0,0.0,0.0,0.47255846858024597,0.0,0.0,0.0,24.520000457763672,23.549999237060547,24.280000686645508,23.309999465942383,23.549999237060547,24.440000534057617,23.800867080688477,0.059618838131427765,-0.1641933023929596,0.026272932067513466,-1.142533540725708,1777925855387831792
1777925855492387243,275.4489440917969,184.6633758544922,81.5888671875,243.10496520996094,87.40780639648438,74.61874389648438,0.0,0.0,0.0,0.0,0.0,0.0,0.0,0.0,0.5045963525772095,0.0,0.0,0.0,24.520000457763672,23.6299991607666,24.200000762939453,23.389999389648438,23.549999237060547,24.440000534057617,23.800867080688477,0.05075657740235329,-0.1621289998292923,0.025947093963623047,-1.1427850723266602,1777925855487911588
1777925855593393396,275.4489440917969,184.66357421875,81.5888671875,243.10496520996094,87.40780639648438,74.61874389648438,0.0,0.0,0.0,0.0,0.0,0.0,0.0,0.0,0.4965868890285492,0.0,0.0,0.0,24.440000534057617,23.6299991607666,24.280000686645508,23.309999465942383,23.6299991607666,24.440000534057617,23.800867080688477,0.049950920045375824,-0.16192913055419922,0.028499364852905273,-1.142725944519043,1777925855587959329
1777925855692361815,275.4489440917969,184.66357421875,81.5888671875,243.10496520996094,87.40780639648438,74.61874389648438,0.0,0.0,0.0,0.0,0.0,0.0,0.0,0.0,0.48056793212890625,0.0,0.0,0.0,24.520000457763672,23.6299991607666,24.280000686645508,23.389999389648438,23.6299991607666,24.360000610351562,23.800867080688477,0.0483395978808403,-0.16195853054523468,0.025643903762102127,-1.1418826580047607,1777925855688037847
1777925855792357481,275.4489440917969,184.66348266601562,81.5888671875,243.10496520996094,87.40780639648438,74.61874389648438,0.0,0.0,0.0,0.0,0.0,0.0,0.0,0.0,0.5045963525772095,0.0,0.0,0.0,24.440000534057617,23.6299991607666,24.280000686645508,23.229999542236328,23.549999237060547,24.360000610351562,23.800867080688477,0.05075657740235329,-0.16199588775634766,0.02800385095179081,-1.1441242694854736,1777925855788104421
1777925855892364536,275.4489440917969,184.66357421875,81.5888671875,243.10496520996094,87.40780639648438,74.61874389648438,0.0,0.0,0.0,0.0,0.0,0.0,0.0,0.0,0.48056793212890625,0.0,0.0,0.0,24.520000457763672,23.6299991607666,24.200000762939453,23.229999542236328,23.549999237060547,24.440000534057617,23.800867080688477,0.049950916320085526,-0.16280968487262726,0.02848505973815918,-1.1441683769226074,1777925855888190717
1777925855992366221,275.4489440917969,184.66348266601562,81.5888671875,243.10496520996094,87.40780639648438,74.61874389648438,0.0,0.0,0.0,0.0,0.0,0.0,0.0,0.0,0.5045963525772095,0.0,0.0,0.0,24.520000457763672,23.6299991607666,24.280000686645508,23.309999465942383,23.549999237060547,24.360000610351562,23.800867080688477,0.05075657740235329,-0.1622772216796875,0.028314590454101562,-1.1426666975021362,1777925855988269846
1777925856092365813,275.4489440917969,184.66357421875,81.5888671875,243.10496520996094,87.40780639648438,74.61874389648438,0.0,0.0,0.0,0.0,0.0,0.0,0.0,0.0,0.4645490348339081,0.0,0.0,0.0,24.520000457763672,23.6299991607666,24.280000686645508,23.309999465942383,23.6299991607666,24.360000610351562,23.800867080688477,0.05317356064915657,-0.161818265914917,0.025984445586800575,-1.142866611480713,1777925856088341864
1777925856192367238,275.4489440917969,184.66348266601562,81.5888671875,243.10496520996094,87.40780639648438,74.61874389648438,0.0,0.0,0.0,0.0,0.0,0.0,0.0,0.0,0.5126057863235474,0.0,0.0,0.0,24.520000457763672,23.549999237060547,24.200000762939453,23.309999465942383,23.6299991607666,24.360000610351562,23.800867080688477,0.05800751596689224,-0.16177375614643097,0.02460082247853279,-1.1439982652664185,1777925856188392401
1777925856292365552,275.4489440917969,184.66357421875,81.5888671875,243.10496520996094,87.40780639648438,74.61874389648438,0.0,0.0,0.0,0.0,0.0,0.0,0.0,0.0,0.4965868890285492,0.0,0.0,0.0,24.520000457763672,23.6299991607666,24.200000762939453,23.309999465942383,23.549999237060547,24.440000534057617,23.800867080688477,0.05720185860991478,-0.16197362542152405,0.02758224681019783,-1.1430144309997559,1777925856288452827
1777925856392376977,275.4489440917969,184.66348266601562,81.5888671875,243.10496520996094,87.40780639648438,74.61874389648438,0.0,0.0,0.0,0.0,0.0,0.0,0.0,0.0,0.6407572627067566,0.0,0.0,0.0,24.520000457763672,23.549999237060547,24.1200008392334,23.389999389648438,23.549999237060547,24.440000534057617,23.800867080688477,0.06445279717445374,-0.16206224262714386,0.027877885848283768,-1.1445088386535645,1777925856388538641
1777925856492378106,275.4489440917969,184.6633758544922,81.5888671875,243.10496520996094,87.40780639648438,74.61874389648438,0.0,0.0,0.0,0.0,0.0,0.0,0.0,0.0,0.5045963525772095,0.0,0.0,0.0,24.520000457763672,23.6299991607666,24.200000762939453,23.389999389648438,23.6299991607666,24.440000534057617,23.800867080688477,0.05559053644537926,-0.1612412929534912,0.02922455407679081,-1.1470682621002197,1777925856488602956
1777925856592369031,275.4489440917969,184.66348266601562,81.5888671875,243.10496520996094,87.40780639648438,74.61874389648438,0.0,0.0,0.0,0.0,0.0,0.0,0.0,0.0,0.5045963525772095,0.0,0.0,0.0,24.520000457763672,23.709999084472656,24.280000686645508,23.309999465942383,23.549999237060547,24.440000534057617,23.800867080688477,0.05397921800613403,-0.1612929403781891,0.026908714324235916,-1.1429921388626099,1777925856588658826
1777925856692374975,275.4489440917969,184.66357421875,81.5888671875,243.10496520996094,87.40780639648438,74.61874389648438,0.0,0.0,0.0,0.0,0.0,0.0,0.0,0.0,0.48056793212890625,0.0,0.0,0.0,24.520000457763672,23.6299991607666,24.280000686645508,23.309999465942383,23.469999313354492,24.360000610351562,23.800867080688477,0.0483395978808403,-0.1606198102235794,0.028469959273934364,-1.1441019773483276,1777925856688758492
1777925856792375956,275.4489440917969,184.66348266601562,81.5888671875,243.10496520996094,87.40780639648438,74.61874389648438,0.0,0.0,0.0,0.0,0.0,0.0,0.0,0.0,0.5045963525772095,0.0,0.0,0.0,24.520000457763672,23.6299991607666,24.280000686645508,23.309999465942383,23.549999237060547,24.440000534057617,23.800867080688477,0.05075657740235329,-0.1611228734254837,0.029690662398934364,-1.1442056894302368,1777925856788839733
1777925856892372881,275.4489440917969,184.6633758544922,81.5888671875,243.10496520996094,87.40780639648438,74.61874389648438,0.0,0.0,0.0,0.0,0.0,0.0,0.0,0.0,0.47255846858024597,0.0,0.0,0.0,24.520000457763672,23.6299991607666,24.280000686645508,23.309999465942383,23.549999237060547,24.440000534057617,23.800867080688477,0.05075657740235329,-0.1613152027130127,0.029364824295043945,-1.1442867517471313,1777925856888886732
1777925856992387973,275.4489440917969,184.66348266601562,81.5888671875,243.10496520996094,87.40780639648438,74.61874389648438,0.0,0.0,0.0,0.0,0.0,0.0,0.0,0.0,0.4645490348339081,0.0,0.0,0.0,24.520000457763672,23.6299991607666,24.280000686645508,23.229999542236328,23.6299991607666,24.440000534057617,23.800867080688477,0.04914525896310806,-0.16177375614643097,0.027811527252197266,-1.1458230018615723,1777925856988948306
1777925857092382399,275.4489440917969,184.6633758544922,81.5888671875,243.10496520996094,87.40780639648438,74.61874389648438,0.0,0.0,0.0,0.0,0.0,0.0,0.0,0.0,0.5045963525772095,0.0,0.0,0.0,24.440000534057617,23.6299991607666,24.280000686645508,23.389999389648438,23.549999237060547,24.440000534057617,23.800867080688477,0.05156223848462105,-0.1609603464603424,0.02922455407679081,-1.1445457935333252,1777925857089021787
1777925857192382620,275.4489440917969,184.66348266601562,81.5888671875,243.10496520996094,87.40780639648438,74.61874389648438,0.0,0.0,0.0,0.0,0.0,0.0,0.0,0.0,0.47255846858024597,0.0,0.0,0.0,24.520000457763672,23.6299991607666,24.280000686645508,23.229999542236328,23.549999237060547,24.440000534057617,23.800867080688477,0.04753393679857254,-0.1609603464603424,0.026983022689819336,-1.1454410552978516,1777925857189085972
1777925857292383582,275.4489440917969,184.66357421875,81.5888671875,243.10496520996094,87.40780639648438,74.61874389648438,0.0,0.0,0.0,0.0,0.0,0.0,0.0,0.0,0.48056793212890625,0.0,0.0,0.0,24.520000457763672,23.6299991607666,24.200000762939453,23.309999465942383,23.549999237060547,24.360000610351562,23.800867080688477,0.05397921800613403,-0.16158898174762726,0.029912391677498817,-1.143946647644043,1777925857289152916
1777925857392385341,275.4489440917969,184.6633758544922,81.5888671875,243.10496520996094,87.40780639648438,74.61874389648438,0.0,0.0,0.0,0.0,0.0,0.0,0.0,0.0,0.4885774254798889,0.0,0.0,0.0,24.520000457763672,23.549999237060547,24.200000762939453,23.309999465942383,23.469999313354492,24.440000534057617,23.800867080688477,0.04914525896310806,-0.16081967949867249,0.026983022689819336,-1.1439318656921387,1777925857389219935
1777925857492390174,275.4489440917969,184.66348266601562,81.5888671875,243.10496520996094,87.40780639648438,74.61874389648438,0.0,0.0,0.0,0.0,0.0,0.0,0.0,0.0,0.4965868890285492,0.0,0.0,0.0,24.520000457763672,23.6299991607666,24.280000686645508,23.309999465942383,23.6299991607666,24.440000534057617,23.800867080688477,0.05075657740235329,-0.16010642051696777,0.029069185256958008,-1.145537257194519,1777925857489292619
1777925857592403395,275.4489440917969,184.66357421875,81.5888671875,243.10496520996094,87.40780639648438,74.61874389648438,0.0,0.0,0.0,0.0,0.0,0.0,0.0,0.0,0.5686720609664917,0.0,0.0,0.0,24.520000457763672,23.6299991607666,24.200000762939453,23.389999389648438,23.549999237060547,24.360000610351562,23.800867080688477,0.05397921800613403,-0.16062696278095245,0.028972625732421875,-1.1470019817352295,1777925857589339452
1777925857692395209,275.4489440917969,184.66348266601562,81.5888671875,243.10496520996094,87.40780639648438,74.61874389648438,0.0,0.0,0.0,0.0,0.0,0.0,0.0,0.0,0.5126057863235474,0.0,0.0,0.0,24.520000457763672,23.6299991607666,24.280000686645508,23.389999389648438,23.469999313354492,24.440000534057617,23.800867080688477,0.05317355692386627,-0.1596875935792923,0.029364824295043945,-1.146883487701416,1777925857689438804
1777925857792391042,275.4489440917969,184.66348266601562,81.5888671875,243.10496520996094,87.40780639648438,74.61874389648438,0.0,0.0,0.0,0.0,0.0,0.0,0.0,0.0,0.52061527967453,0.0,0.0,0.0,24.520000457763672,23.6299991607666,24.280000686645508,23.389999389648438,23.549999237060547,24.440000534057617,23.800867080688477,0.05156223848462105,-0.16043265163898468,0.026672283187508583,-1.1460328102111816,1777925857789482933
1777925857892392097,275.4489440917969,184.66348266601562,81.5888671875,243.10496520996094,87.40780639648438,74.61874389648438,0.0,0.0,0.0,0.0,0.0,0.0,0.0,0.0,0.4965868890285492,0.0,0.0,0.0,24.440000534057617,23.6299991607666,24.280000686645508,23.229999542236328,23.6299991607666,24.440000534057617,23.800867080688477,0.05156223848462105,-0.16139665246009827,0.028240282088518143,-1.1438802480697632,1777925857889547266
1777925857992398985,275.4489440917969,184.66348266601562,81.5888671875,243.10496520996094,87.40780639648438,74.61874389648438,0.0,0.0,0.0,0.0,0.0,0.0,0.0,0.0,0.5045963525772095,0.0,0.0,0.0,24.520000457763672,23.6299991607666,24.200000762939453,23.389999389648438,23.549999237060547,24.440000534057617,23.801034927368164,0.05397921800613403,-0.16164779663085938,0.028980571776628494,-1.1444718837738037,1777925857989605173
1777925858092401559,275.4489440917969,184.66357421875,81.5888671875,243.10496520996094,87.40780639648438,74.61874389648438,0.0,0.0,0.0,0.0,0.0,0.0,0.0,0.0,0.4965868890285492,0.0,0.0,0.0,24.520000457763672,23.6299991607666,24.360000610351562,23.309999465942383,23.549999237060547,24.440000534057617,23.801034927368164,0.049950920045375824,-0.16200542449951172,0.026731092482805252,-1.1432361602783203,1777925858089691914
1777925858192401039,275.4489440917969,184.66357421875,81.5888671875,243.10496520996094,87.40780639648438,74.61874389648438,0.0,0.0,0.0,0.0,0.0,0.0,0.0,0.0,0.4645490348339081,0.0,0.0,0.0,24.440000534057617,23.6299991607666,24.440000534057617,23.229999542236328,23.549999237060547,24.360000610351562,23.801034927368164,0.05156223848462105,-0.1613152027130127,0.02568085864186287,-1.145004391670227,1777925858189705747
1777925858292399335,275.4489440917969,184.66357421875,81.5888671875,243.10496520996094,87.40780639648438,74.61874389648438,0.0,0.0,0.0,0.0,0.0,0.0,0.0,0.0,0.0,0.0,0.0,0.0,0.0,0.0,0.0,0.0,0.0,0.0,23.801034927368164,0.0,0.0,0.0,0.0,1777925858189705747
1777925858392428427,275.4489440917969,184.6633758544922,81.5888671875,243.10496520996094,87.40780639648438,74.61874389648438,0.0,0.0,0.0,0.0,0.0,0.0,0.0,0.0,0.4965868890285492,0.0,0.0,0.0,24.520000457763672,23.6299991607666,24.200000762939453,23.389999389648438,23.6299991607666,24.440000534057617,23.801034927368164,0.04914525896310806,-0.1623213291168213,0.02887725830078125,-1.1439836025238037,1777925858389869191
1777925858491404495,275.4489440917969,184.66348266601562,81.5888671875,243.10496520996094,87.40780639648438,74.61874389648438,0.0,0.0,0.0,0.0,0.0,0.0,0.0,0.0,0.5045963525772095,0.0,0.0,0.0,24.520000457763672,23.6299991607666,24.280000686645508,23.389999389648438,23.549999237060547,24.440000534057617,23.801034927368164,0.058813177049160004,-0.16161838173866272,0.030045509338378906,-1.1446419954299927,1777925858489925042
1777925858592410611,275.4489440917969,184.66348266601562,81.5888671875,243.10496520996094,87.40780639648438,74.61874389648438,0.0,0.0,0.0,0.0,0.0,0.0,0.0,0.0,0.5126057863235474,0.0,0.0,0.0,24.520000457763672,23.6299991607666,24.200000762939453,23.309999465942383,23.549999237060547,24.440000534057617,23.801034927368164,0.054784879088401794,-0.162654310464859,0.026176372542977333,-1.1445088386535645,1777925858590008375
1777925858692405036,275.4489440917969,184.66348266601562,81.5888671875,243.10496520996094,87.40780639648438,74.61874389648438,0.0,0.0,0.0,0.0,0.0,0.0,0.0,0.0,0.5045963525772095,0.0,0.0,0.0,24.520000457763672,23.6299991607666,24.280000686645508,23.309999465942383,23.6299991607666,24.440000534057617,23.801034927368164,0.05397921800613403,-0.1612929403781891,0.02871394157409668,-1.1438504457473755,1777925858690063986
1777925858792416110,275.4489440917969,184.66357421875,81.5888671875,243.10496520996094,87.40780639648438,74.61874389648438,0.0,0.0,0.0,0.0,0.0,0.0,0.0,0.0,0.208246111869812,0.0,0.0,0.0,24.520000457763672,23.6299991607666,24.200000762939453,23.389999389648438,23.549999237060547,24.360000610351562,23.801034927368164,0.06042449548840523,-0.16194382309913635,0.028780698776245117,-1.1430556774139404,1777925858790118986
1777925858892411535,275.4489440917969,184.66348266601562,81.5888671875,243.10496520996094,87.40780639648438,74.61874389648438,0.0,0.0,0.0,0.0,0.0,0.0,0.0,0.0,0.4965868890285492,0.0,0.0,0.0,24.520000457763672,23.709999084472656,24.280000686645508,23.309999465942383,23.549999237060547,24.360000610351562,23.801034927368164,0.0483395978808403,-0.1611006259918213,0.02578457072377205,-1.1428145170211792,1777925858890193467
1777925858991411917,275.4489440917969,184.66348266601562,81.5888671875,243.10496520996094,87.40780639648438,74.61874389648438,0.0,0.0,0.0,0.0,0.0,0.0,0.0,0.0,0.44052064418792725,0.0,0.0,0.0,24.520000457763672,23.6299991607666,24.200000762939453,23.389999389648438,23.469999313354492,24.360000610351562,23.801034927368164,0.05075657740235329,-0.16212144494056702,0.02401590347290039,-1.14163076877594,1777925858990243689
1777925859092419515,275.4489440917969,184.66348266601562,81.5888671875,243.10496520996094,87.40780639648438,74.61874389648438,0.0,0.0,0.0,0.0,0.0,0.0,0.0,0.0,0.48056793212890625,0.0,0.0,0.0,24.520000457763672,23.549999237060547,24.200000762939453,23.309999465942383,23.549999237060547,24.440000534057617,23.801034927368164,0.050756581127643585,-0.16098220646381378,0.027138391509652138,-1.1426666975021362,1777925859090308133
1777925859192417255,275.4489440917969,184.66348266601562,81.5888671875,243.10496520996094,87.40780639648438,74.61874389648438,0.0,0.0,0.0,0.0,0.0,0.0,0.0,0.0,0.5045963525772095,0.0,0.0,0.0,24.520000457763672,23.6299991607666,24.280000686645508,23.389999389648438,23.549999237060547,24.440000534057617,23.801034927368164,0.05156223848462105,-0.1621953547000885,0.02570311166346073,-1.141897439956665,1777925859190364096
1777925859292418625,275.4489440917969,184.66348266601562,81.5888671875,243.10496520996094,87.40780639648438,74.61874389648438,0.0,0.0,0.0,0.0,0.0,0.0,0.0,0.0,0.44052064418792725,0.0,0.0,0.0,24.520000457763672,23.6299991607666,24.280000686645508,23.309999465942383,23.549999237060547,24.440000534057617,23.801034927368164,0.05317355692386627,-0.161625936627388,0.025769472122192383,-1.143798828125,1777925859290433799
1777925859392424069,275.4489440917969,184.66357421875,81.5888671875,243.10496520996094,87.40780639648438,74.61874389648438,0.0,0.0,0.0,0.0,0.0,0.0,0.0,0.0,0.5126057863235474,0.0,0.0,0.0,24.520000457763672,23.6299991607666,24.280000686645508,23.389999389648438,23.6299991607666,24.440000534057617,23.801034927368164,0.060424499213695526,-0.1620328426361084,0.028721490874886513,-1.1433104276657104,1777925859390493299
1777925859491420247,275.4489440917969,184.66348266601562,81.5888671875,243.10496520996094,87.40780639648438,74.61874389648438,0.0,0.0,0.0,0.0,0.0,0.0,0.0,0.0,0.48056793212890625,0.0,0.0,0.0,24.520000457763672,23.6299991607666,24.280000686645508,23.309999465942383,23.549999237060547,24.440000534057617,23.801034927368164,0.05236789956688881,-0.1620328426361084,0.025739669799804688,-1.1442644596099854,1777925859490554632
1777925859593429888,275.4489440917969,184.66348266601562,81.5888671875,243.10496520996094,87.40780639648438,74.61874389648438,0.0,0.0,0.0,0.0,0.0,0.0,0.0,0.0,0.4885774254798889,0.0,0.0,0.0,24.440000534057617,23.6299991607666,24.280000686645508,23.389999389648438,23.549999237060547,24.440000534057617,23.801034927368164,0.05317356064915657,-0.1632237434387207,0.027922391891479492,-1.142392873764038,1777925859590656502
1777925859692433789,275.4489440917969,184.66357421875,81.5888671875,243.10496520996094,87.40780639648438,74.61874389648438,0.0,0.0,0.0,0.0,0.0,0.0,0.0,0.0,0.4325111508369446,0.0,0.0,0.0,24.520000457763672,23.549999237060547,24.280000686645508,23.389999389648438,23.549999237060547,24.440000534057617,23.801034927368164,0.049950920045375824,-0.16246914863586426,0.028978586196899414,-1.1434952020645142,1777925859690715446
1777925859792426547,275.4489440917969,184.6633758544922,81.5888671875,243.10496520996094,87.40780639648438,74.61874389648438,0.0,0.0,0.0,0.0,0.0,0.0,0.0,0.0,0.48056793212890625,0.0,0.0,0.0,24.520000457763672,23.549999237060547,24.200000762939453,23.389999389648438,23.549999237060547,24.360000610351562,23.801034927368164,0.0483395978808403,-0.16214370727539062,0.026198625564575195,-1.1426666975021362,1777925859790776723
1777925859892426806,275.4489440917969,184.6633758544922,81.5888671875,243.10496520996094,87.40780639648438,74.61874389648438,0.0,0.0,0.0,0.0,0.0,0.0,0.0,0.0,0.5446437001228333,0.0,0.0,0.0,24.520000457763672,23.549999237060547,24.200000762939453,23.309999465942383,23.6299991607666,24.440000534057617,23.801034927368164,0.05236789956688881,-0.16297975182533264,0.029520193114876747,-1.143362045288086,1777925859890835056
1777925859991438466,275.4489440917969,184.6633758544922,81.5888671875,243.10496520996094,87.40780639648438,74.61874389648438,0.0,0.0,0.0,0.0,0.0,0.0,0.0,0.0,0.4885774254798889,0.0,0.0,0.0,24.520000457763672,23.6299991607666,24.280000686645508,23.309999465942383,23.549999237060547,24.360000610351562,23.801034927368164,0.0483395978808403,-0.16320188343524933,0.02671678736805916,-1.1441242694854736,1777925859990909630
1777925860092430694,275.4489440917969,184.66357421875,81.5888671875,243.10496520996094,87.40780639648438,74.61874389648438,0.0,0.0,0.0,0.0,0.0,0.0,0.0,0.0,0.5126057863235474,0.0,0.0,0.0,24.520000457763672,23.6299991607666,24.200000762939453,23.389999389648438,23.6299991607666,24.440000534057617,23.801034927368164,0.04914525896310806,-0.1625359058380127,0.028785863891243935,-1.1435174942016602,1777925860090966278
1777925860192428397,275.4489440917969,184.6633758544922,81.5888671875,243.10496520996094,87.40780639648438,74.61874389648438,0.0,0.0,0.0,0.0,0.0,0.0,0.0,0.0,0.4965868890285492,0.0,0.0,0.0,24.520000457763672,23.6299991607666,24.280000686645508,23.309999465942383,23.549999237060547,24.280000686645508,23.801034927368164,0.05236789584159851,-0.16185522079467773,0.02808491326868534,-1.1443535089492798,1777925860191031685
1777925860292437100,275.4489440917969,184.6633758544922,81.5888671875,243.10496520996094,87.40780639648438,74.61874389648438,0.0,0.0,0.0,0.0,0.0,0.0,0.0,0.0,0.5126057863235474,0.0,0.0,0.0,24.520000457763672,23.6299991607666,24.200000762939453,23.389999389648438,23.549999237060547,24.440000534057617,23.801034927368164,0.05236789956688881,-0.1607159674167633,0.027618804946541786,-1.1463288068771362,1777925860291094277
1777925860392308043,275.4489440917969,184.66348266601562,81.5888671875,243.10496520996094,87.40780639648438,74.61874389648438,0.0,0.0,0.0,0.0,0.0,0.0,0.0,0.0,0.52061527967453,0.0,0.0,0.0,24.520000457763672,23.6299991607666,24.280000686645508,23.309999465942383,23.549999237060547,24.440000534057617,23.801034927368164,0.05236789956688881,-0.16220290958881378,0.028920967131853104,-1.1445382833480835,1777925860391142092
1777925860491305944,275.4489440917969,184.66348266601562,81.5888671875,243.10496520996094,87.40780639648438,74.61874389648438,0.0,0.0,0.0,0.0,0.0,0.0,0.0,0.0,0.4645490348339081,0.0,0.0,0.0,24.520000457763672,23.549999237060547,24.280000686645508,23.229999542236328,23.549999237060547,24.520000457763672,23.801034927368164,0.04753393679857254,-0.16103386878967285,0.030844608321785927,-1.1440355777740479,1777925860491221129
1777925860592326393,275.4489440917969,184.66357421875,81.5888671875,243.10496520996094,87.40780639648438,74.61874389648438,0.0,0.0,0.0,0.0,0.0,0.0,0.0,0.0,0.48056793212890625,0.0,0.0,0.0,24.520000457763672,23.6299991607666,24.360000610351562,23.389999389648438,23.6299991607666,24.440000534057617,23.801034927368164,0.05075657740235329,-0.16173839569091797,0.027398664504289627,-1.1453819274902344,1777925860591271461
1777925860692316985,275.4489440917969,184.6633758544922,81.5888671875,243.10496520996094,87.40780639648438,74.61874389648438,0.0,0.0,0.0,0.0,0.0,0.0,0.0,0.0,0.52061527967453,0.0,0.0,0.0,24.520000457763672,23.709999084472656,24.200000762939453,23.389999389648438,23.6299991607666,24.360000610351562,23.801034927368164,0.04914525896310806,-0.16117453575134277,0.02729376032948494,-1.144834280014038,1777925860691339035
1777925860792306244,275.4489440917969,184.66357421875,81.5888671875,243.10496520996094,87.40780639648438,74.61874389648438,0.0,0.0,0.0,0.0,0.0,0.0,0.0,0.0,0.5126057863235474,0.0,0.0,0.0,24.520000457763672,23.6299991607666,24.280000686645508,23.389999389648438,23.6299991607666,24.440000534057617,23.801034927368164,0.050756581127643585,-0.16030669212341309,0.02854386903345585,-1.14650559425354,1777925860791398776
1777925860892314632,275.4489440917969,184.66348266601562,81.5888671875,243.10496520996094,87.40780639648438,74.61874389648438,0.0,0.0,0.0,0.0,0.0,0.0,0.0,0.0,0.4965868890285492,0.0,0.0,0.0,24.520000457763672,23.549999237060547,24.200000762939453,23.309999465942383,23.469999313354492,24.440000534057617,23.801034927368164,0.054784879088401794,-0.16092300415039062,0.029084283858537674,-1.1458773612976074,1777925860891471294
1777925860991201810,275.4489440917969,184.66348266601562,81.5888671875,243.10496520996094,87.40780639648438,74.61874389648438,0.0,0.0,0.0,0.0,0.0,0.0,0.0,0.0,0.4965868890285492,0.0,0.0,0.0,24.520000457763672,23.549999237060547,24.200000762939453,23.309999465942383,23.469999313354492,24.440000534057617,23.801034927368164,0.054784879088401794,-0.16092300415039062,0.029084283858537674,-1.1458773612976074,1777925860891471294
1777925861092458002,275.4489440917969,184.66348266601562,81.5888671875,243.10496520996094,87.40780639648438,74.61874389648438,0.0,0.0,0.0,0.0,0.0,0.0,0.0,0.0,0.5126057863235474,0.0,0.0,0.0,24.520000457763672,23.6299991607666,24.280000686645508,23.309999465942383,23.549999237060547,24.440000534057617,23.801034927368164,0.05317355692386627,-0.16266146302223206,0.026243526488542557,-1.1438575983047485,1777925861091590719
1777925861192320667,275.4489440917969,184.66348266601562,81.5888671875,243.10496520996094,87.40780639648438,74.61874389648438,0.0,0.0,0.0,0.0,0.0,0.0,0.0,0.0,0.48056793212890625,0.0,0.0,0.0,24.520000457763672,23.6299991607666,24.1200008392334,23.389999389648438,23.549999237060547,24.440000534057617,23.801034927368164,0.0652584582567215,-0.16130049526691437,0.029180049896240234,-1.144999623298645,1777925861191655941
1777925861292323963,275.4489440917969,184.66357421875,81.5888671875,243.10496520996094,87.40780639648438,74.61874389648438,0.0,0.0,0.0,0.0,0.0,0.0,0.0,0.0,0.5126057863235474,0.0,0.0,0.0,24.520000457763672,23.6299991607666,24.280000686645508,23.389999389648438,23.549999237060547,24.360000610351562,23.801034927368164,0.05559053644537926,-0.15993912518024445,0.027885833755135536,-1.1453373432159424,1777925861291751608
1777925861392323684,275.4489440917969,184.66357421875,81.5888671875,243.10496520996094,87.40780639648438,74.61874389648438,0.0,0.0,0.0,0.0,0.0,0.0,0.0,0.0,0.4885774254798889,0.0,0.0,0.0,24.520000457763672,23.6299991607666,24.200000762939453,23.389999389648438,23.549999237060547,24.360000610351562,23.801034927368164,0.05075657740235329,-0.16105611622333527,0.026436645537614822,-1.1472538709640503,1777925861391801922
1777925861492351758,275.4489440917969,184.66348266601562,81.5888671875,243.10496520996094,87.40780639648438,74.61874389648438,0.0,0.0,0.0,0.0,0.0,0.0,0.0,0.0,0.5126057863235474,0.0,0.0,0.0,24.520000457763672,23.6299991607666,24.280000686645508,23.309999465942383,23.549999237060547,24.440000534057617,23.801034927368164,0.050756581127643585,-0.1613152027130127,0.02610246278345585,-1.1449456214904785,1777925861491886403
1777925861592326109,275.4489440917969,184.66348266601562,81.5888671875,243.10496520996094,87.40780639648438,74.61874389648438,0.0,0.0,0.0,0.0,0.0,0.0,0.0,0.0,0.4565395414829254,0.0,0.0,0.0,24.520000457763672,23.6299991607666,24.360000610351562,23.309999465942383,23.549999237060547,24.440000534057617,23.801034927368164,0.05156223848462105,-0.16141891479492188,0.02855857089161873,-1.1439017057418823,1777925861591894366
1777925861692326886,275.4489440917969,184.6633758544922,81.5888671875,243.10496520996094,87.40780639648438,74.61874389648438,0.0,0.0,0.0,0.0,0.0,0.0,0.0,0.0,0.52061527967453,0.0,0.0,0.0,24.520000457763672,23.709999084472656,24.280000686645508,23.309999465942383,23.6299991607666,24.360000610351562,23.801034927368164,0.049950920045375824,-0.16204038262367249,0.027811527252197266,-1.1424965858459473,1777925861692002329
1777925861792330589,275.4489440917969,184.66348266601562,81.5888671875,243.10496520996094,87.40780639648438,74.61874389648438,0.0,0.0,0.0,0.0,0.0,0.0,0.0,0.0,0.48056793212890625,0.0,0.0,0.0,24.520000457763672,23.6299991607666,24.280000686645508,23.309999465942383,23.6299991607666,24.440000534057617,23.801034927368164,0.05317355692386627,-0.16107836365699768,0.025447208434343338,-1.1434359550476074,1777925861792063365
1777925861892334403,275.4489440917969,184.66348266601562,81.5888671875,243.10496520996094,87.40780639648438,74.61874389648438,0.0,0.0,0.0,0.0,0.0,0.0,0.0,0.0,0.5045963525772095,0.0,0.0,0.0,24.440000534057617,23.6299991607666,24.280000686645508,23.389999389648438,23.549999237060547,24.440000534057617,23.801034927368164,0.05156223848462105,-0.16361594200134277,0.02827763557434082,-1.1426150798797607,1777925861892125587
1777925861992332143,275.4489440917969,184.66348266601562,81.5888671875,243.10496520996094,87.40780639648438,74.61874389648438,0.0,0.0,0.0,0.0,0.0,0.0,0.0,0.0,0.5045963525772095,0.0,0.0,0.0,24.520000457763672,23.549999237060547,24.280000686645508,23.389999389648438,23.549999237060547,24.360000610351562,23.801034927368164,0.054784879088401794,-0.16273577511310577,0.02679784968495369,-1.1440725326538086,1777925861992189642
1777925862092332050,275.4489440917969,184.66348266601562,81.5888671875,243.10496520996094,87.40780639648438,74.61874389648438,0.0,0.0,0.0,0.0,0.0,0.0,0.0,0.0,0.5126057863235474,0.0,0.0,0.0,24.520000457763672,23.549999237060547,24.280000686645508,23.309999465942383,23.6299991607666,24.440000534057617,23.801034927368164,0.05075657740235329,-0.1615075170993805,0.024815399199724197,-1.1436498165130615,1777925862092259920
1777925862191332099,275.4489440917969,184.66348266601562,81.5888671875,243.10496520996094,87.40780639648438,74.61874389648438,0.0,0.0,0.0,0.0,0.0,0.0,0.0,0.0,0.5126057863235474,0.0,0.0,0.0,24.520000457763672,23.549999237060547,24.280000686645508,23.309999465942383,23.6299991607666,24.440000534057617,23.801034927368164,0.05075657740235329,-0.1615075170993805,0.024815399199724197,-1.1436498165130615,1777925862092259920
1777925862292344234,275.4489440917969,184.66357421875,81.5888671875,243.10496520996094,87.40780639648438,74.61874389648438,0.0,0.0,0.0,0.0,0.0,0.0,0.0,0.0,0.4885774254798889,0.0,0.0,0.0,24.520000457763672,23.6299991607666,24.280000686645508,23.389999389648438,23.549999237060547,24.520000457763672,23.801034927368164,0.04914525896310806,-0.1621512472629547,0.02726435661315918,-1.141904592514038,1777925862292339623
1777925862392337715,275.4489440917969,184.66348266601562,81.5888671875,243.10496520996094,87.40780639648438,74.61874389648438,0.0,0.0,0.0,0.0,0.0,0.0,0.0,0.0,0.5045963525772095,0.0,0.0,0.0,24.520000457763672,23.549999237060547,24.280000686645508,23.389999389648438,23.549999237060547,24.440000534057617,23.801034927368164,0.05317355692386627,-0.16126354038715363,0.022706586867570877,-1.1430513858795166,1777925862392455030
1777925862493346886,275.4489440917969,184.66357421875,81.5888671875,243.10496520996094,87.40780639648438,74.61874389648438,0.0,0.0,0.0,0.0,0.0,0.0,0.0,0.0,0.44853007793426514,0.0,0.0,0.0,24.520000457763672,23.6299991607666,24.280000686645508,23.309999465942383,23.549999237060547,24.440000534057617,23.801034927368164,0.045116957277059555,-0.16231417655944824,0.028758445754647255,-1.1461288928985596,1777925862492459826
1777925862592352417,275.4489440917969,184.66357421875,81.5888671875,243.10496520996094,87.40780639648438,74.61874389648438,0.0,0.0,0.0,0.0,0.0,0.0,0.0,0.0,0.44853007793426514,0.0,0.0,0.0,24.520000457763672,23.6299991607666,24.280000686645508,23.309999465942383,23.549999237060547,24.440000534057617,23.801034927368164,0.045116957277059555,-0.16231417655944824,0.028758445754647255,-1.1461288928985596,1777925862492459826
1777925862692340546,275.4489440917969,184.66357421875,81.5888671875,243.10496520996094,87.40780639648438,74.61874389648438,0.0,0.0,0.0,0.0,0.0,0.0,0.0,0.0,0.4965868890285492,0.0,0.0,0.0,24.520000457763672,23.549999237060547,24.360000610351562,23.309999465942383,23.549999237060547,24.440000534057617,23.801034927368164,0.05317355692386627,-0.16229906678199768,0.02696792222559452,-1.1448049545288086,1777925862592583844
1777925862792345342,275.4489440917969,184.6633758544922,81.5888671875,243.10496520996094,87.40780639648438,74.61874389648438,0.0,0.0,0.0,0.0,0.0,0.0,0.0,0.0,0.4885774254798889,0.0,0.0,0.0,24.520000457763672,23.6299991607666,24.360000610351562,23.309999465942383,23.6299991607666,24.440000534057617,23.801034927368164,0.049950916320085526,-0.1632535457611084,0.024950504302978516,-1.1410243511199951,1777925862692653955
1777925862891348872,275.4489440917969,184.6633758544922,81.5888671875,243.10496520996094,87.40780639648438,74.61874389648438,0.0,0.0,0.0,0.0,0.0,0.0,0.0,0.0,0.5045963525772095,0.0,0.0,0.0,24.520000457763672,23.6299991607666,24.280000686645508,23.389999389648438,23.549999237060547,24.440000534057617,23.801034927368164,0.05075657740235329,-0.16307592391967773,0.025947093963623047,-1.1417937278747559,1777925862792722288
1777925862992345562,275.4489440917969,184.66357421875,81.5888671875,243.10496520996094,87.40780639648438,74.61874389648438,0.0,0.0,0.0,0.0,0.0,0.0,0.0,0.0,0.5045963525772095,0.0,0.0,0.0,24.520000457763672,23.6299991607666,24.280000686645508,23.389999389648438,23.6299991607666,24.440000534057617,23.801034927368164,0.04672827944159508,-0.1626320630311966,0.02444545365869999,-1.1422080993652344,1777925862892808195
1777925863092351358,275.4489440917969,184.6633758544922,81.5888671875,243.10496520996094,87.40780639648438,74.61874389648438,0.0,0.0,0.0,0.0,0.0,0.0,0.0,0.0,0.48056793212890625,0.0,0.0,0.0,24.440000534057617,23.6299991607666,24.280000686645508,23.389999389648438,23.6299991607666,24.440000534057617,23.80123519897461,0.04914525896310806,-0.16235828399658203,0.028676986694335938,-1.1446717977523804,1777925862992855436
1777925863192353709,275.4489440917969,184.66357421875,81.5888671875,243.10496520996094,87.40780639648438,74.61874389648438,0.0,0.0,0.0,0.0,0.0,0.0,0.0,0.0,0.4885774254798889,0.0,0.0,0.0,24.520000457763672,23.6299991607666,24.200000762939453,23.309999465942383,23.6299991607666,24.440000534057617,23.80123519897461,0.04753393679857254,-0.161818265914917,0.02634684182703495,-1.1449650526046753,1777925863092918139
1777925863292352209,275.4489440917969,184.66357421875,81.5888671875,243.10496520996094,87.40780639648438,74.61874389648438,0.0,0.0,0.0,0.0,0.0,0.0,0.0,0.0,0.5045963525772095,0.0,0.0,0.0,24.520000457763672,23.709999084472656,24.280000686645508,23.389999389648438,23.549999237060547,24.360000610351562,23.80123519897461,0.05156223848462105,-0.16158142685890198,0.02695322036743164,-1.1451895236968994,1777925863192982083
1777925863392351430,275.4489440917969,184.66357421875,81.5888671875,243.10496520996094,87.40780639648438,74.61874389648438,0.0,0.0,0.0,0.0,0.0,0.0,0.0,0.0,0.5045963525772095,0.0,0.0,0.0,24.520000457763672,23.6299991607666,24.360000610351562,23.309999465942383,23.549999237060547,24.440000534057617,23.80123519897461,0.050756581127643585,-0.16169984638690948,0.030361413955688477,-1.1444718837738037,1777925863293004009
1777925863492361096,275.4489440917969,184.66348266601562,81.5888671875,243.10496520996094,87.40780639648438,74.61874389648438,0.0,0.0,0.0,0.0,0.0,0.0,0.0,0.0,0.5126057863235474,0.0,0.0,0.0,24.520000457763672,23.709999084472656,24.280000686645508,23.309999465942383,23.549999237060547,24.360000610351562,23.80123519897461,0.05075657740235329,-0.1627504825592041,0.028980571776628494,-1.1453742980957031,1777925863393070953
1777925863592360373,275.4489440917969,184.66357421875,81.5888671875,243.10496520996094,87.40780639648438,74.61874389648438,0.0,0.0,0.0,0.0,0.0,0.0,0.0,0.0,0.4565395414829254,0.0,0.0,0.0,24.600000381469727,23.709999084472656,24.280000686645508,23.309999465942383,23.549999237060547,24.440000534057617,23.80123519897461,0.04914525896310806,-0.16044218838214874,0.0293576717376709,-1.145622730255127,1777925863493130489
1777925863692362262,275.4489440917969,184.66348266601562,81.5888671875,243.10496520996094,87.40780639648438,74.61874389648438,0.0,0.0,0.0,0.0,0.0,0.0,0.0,0.0,0.5126057863235474,0.0,0.0,0.0,24.440000534057617,23.6299991607666,24.280000686645508,23.309999465942383,23.549999237060547,24.520000457763672,23.80123519897461,0.054784879088401794,-0.16186276078224182,0.028573671355843544,-1.1448585987091064,1777925863593192971
1777925863791365052,275.4489440917969,184.66348266601562,81.5888671875,243.10496520996094,87.40780639648438,74.61874389648438,0.0,0.0,0.0,0.0,0.0,0.0,0.0,0.0,0.5045963525772095,0.0,0.0,0.0,24.520000457763672,23.6299991607666,24.280000686645508,23.389999389648438,23.469999313354492,24.360000610351562,23.80123519897461,0.050756581127643585,-0.16212144494056702,0.029594499617815018,-1.1427704095840454,1777925863693256489
1777925863892364723,275.4489440917969,184.66348266601562,81.5888671875,243.10496520996094,87.40780639648438,74.61874389648438,0.0,0.0,0.0,0.0,0.0,0.0,0.0,0.0,0.4965868890285492,0.0,0.0,0.0,24.440000534057617,23.6299991607666,24.200000762939453,23.389999389648438,23.6299991607666,24.440000534057617,23.80123519897461,0.05236789956688881,-0.1622176170349121,0.027782121673226357,-1.1448267698287964,1777925863793332322
1777925863992364260,275.4489440917969,184.66348266601562,81.5888671875,243.10496520996094,87.40780639648438,74.61874389648438,0.0,0.0,0.0,0.0,0.0,0.0,0.0,0.0,0.4965868890285492,0.0,0.0,0.0,24.440000534057617,23.6299991607666,24.280000686645508,23.309999465942383,23.549999237060547,24.440000534057617,23.80123519897461,0.05236789956688881,-0.1611967831850052,0.02816637232899666,-1.1461365222930908,1777925863893379729
1777925864092366888,275.4489440917969,184.66357421875,81.5888671875,243.10496520996094,87.40780639648438,74.61874389648438,0.0,0.0,0.0,0.0,0.0,0.0,0.0,0.0,0.4885774254798889,0.0,0.0,0.0,24.440000534057617,23.549999237060547,24.280000686645508,23.309999465942383,23.549999237060547,24.440000534057617,23.80123519897461,0.05317355692386627,-0.16104140877723694,0.0302604828029871,-1.143747091293335,1777925863993444451
1777925864192367777,275.4489440917969,184.6633758544922,81.5888671875,243.10496520996094,87.40780639648438,74.61874389648438,0.0,0.0,0.0,0.0,0.0,0.0,0.0,0.0,0.4965868890285492,0.0,0.0,0.0,24.440000534057617,23.6299991607666,24.280000686645508,23.309999465942383,23.6299991607666,24.360000610351562,23.80123519897461,0.0483395978808403,-0.16141891479492188,0.029468536376953125,-1.14515221118927,1777925864093513784
1777925864292368776,275.4489440917969,184.6633758544922,81.5888671875,243.10496520996094,87.40780639648438,74.61874389648438,0.0,0.0,0.0,0.0,0.0,0.0,0.0,0.0,0.4965868890285492,0.0,0.0,0.0,24.520000457763672,23.549999237060547,24.280000686645508,23.309999465942383,23.549999237060547,24.440000534057617,23.80123519897461,0.04914525896310806,-0.16064167022705078,0.02667943574488163,-1.1448267698287964,1777925864193571395
1777925864392372405,275.4489440917969,184.66357421875,81.5888671875,243.10496520996094,87.40780639648438,74.61874389648438,0.0,0.0,0.0,0.0,0.0,0.0,0.0,0.0,0.5366342067718506,0.0,0.0,0.0,24.520000457763672,23.6299991607666,24.280000686645508,23.309999465942383,23.549999237060547,24.440000534057617,23.80123519897461,0.045922618359327316,-0.1617884635925293,0.02610246278345585,-1.1448438167572021,1777925864293647820
1777925864491366658,275.4489440917969,184.66348266601562,81.5888671875,243.10496520996094,87.40780639648438,74.61874389648438,0.0,0.0,0.0,0.0,0.0,0.0,0.0,0.0,0.4885774254798889,0.0,0.0,0.0,24.440000534057617,23.709999084472656,24.280000686645508,23.309999465942383,23.549999237060547,24.440000534057617,23.80123519897461,0.05397921800613403,-0.16086378693580627,0.02571026422083378,-1.1444497108459473,1777925864393713505
1777925864592375626,275.4489440917969,184.6633758544922,81.5888671875,243.10496520996094,87.40780639648438,74.61874389648438,0.0,0.0,0.0,0.0,0.0,0.0,0.0,0.0,0.5045963525772095,0.0,0.0,0.0,24.520000457763672,23.6299991607666,24.200000762939453,23.309999465942383,23.549999237060547,24.440000534057617,23.80123519897461,0.04269997775554657,-0.1601608544588089,0.027493635192513466,-1.1445311307907104,1777925864493781079
1777925864692381310,275.4489440917969,184.66348266601562,81.5888671875,243.10496520996094,87.40780639648438,74.61874389648438,0.0,0.0,0.0,0.0,0.0,0.0,0.0,0.0,0.4965868890285492,0.0,0.0,0.0,24.520000457763672,23.6299991607666,24.280000686645508,23.309999465942383,23.549999237060547,24.360000610351562,23.80123519897461,0.05236789956688881,-0.16161957383155823,0.027892986312508583,-1.1431844234466553,1777925864593853542
1777925864792376625,275.4489440917969,184.66348266601562,81.5888671875,243.10496520996094,87.40780639648438,74.61874389648438,0.0,0.0,0.0,0.0,0.0,0.0,0.0,0.0,0.4965868890285492,0.0,0.0,0.0,24.520000457763672,23.709999084472656,24.360000610351562,23.309999465942383,23.549999237060547,24.440000534057617,23.80123519897461,0.05639619752764702,-0.16173520684242249,0.025333166122436523,-1.1424521207809448,1777925864693917671
1777925864892382772,275.4489440917969,184.6633758544922,81.5888671875,243.10496520996094,87.40780639648438,74.61874389648438,0.0,0.0,0.0,0.0,0.0,0.0,0.0,0.0,0.5045963525772095,0.0,0.0,0.0,24.440000534057617,23.6299991607666,24.280000686645508,23.309999465942383,23.6299991607666,24.440000534057617,23.80123519897461,0.04753393679857254,-0.16081967949867249,0.02812981605529785,-1.1446256637573242,1777925864793970559
1777925864992377457,275.4489440917969,184.66357421875,81.5888671875,243.10496520996094,87.40780639648438,74.61874389648438,0.0,0.0,0.0,0.0,0.0,0.0,0.0,0.0,0.5126057863235474,0.0,0.0,0.0,24.520000457763672,23.6299991607666,24.280000686645508,23.389999389648438,23.549999237060547,24.280000686645508,23.80123519897461,0.05397921800613403,-0.16155202686786652,0.025658607482910156,-1.143635869026184,1777925864894029652
1777925865092385826,275.4489440917969,184.6633758544922,81.5888671875,243.10496520996094,87.40780639648438,74.61874389648438,0.0,0.0,0.0,0.0,0.0,0.0,0.0,0.0,0.5045963525772095,0.0,0.0,0.0,24.520000457763672,23.6299991607666,24.280000686645508,23.309999465942383,23.549999237060547,24.440000534057617,23.80123519897461,0.05559053644537926,-0.1615961343050003,0.029402175918221474,-1.1446495056152344,1777925864994091485
1777925865192381826,275.4489440917969,184.66357421875,81.5888671875,243.10496520996094,87.40780639648438,74.61874389648438,0.0,0.0,0.0,0.0,0.0,0.0,0.0,0.0,0.5286247134208679,0.0,0.0,0.0,24.520000457763672,23.6299991607666,24.280000686645508,23.389999389648438,23.549999237060547,24.440000534057617,23.80123519897461,0.049950920045375824,-0.16139665246009827,0.027693111449480057,-1.144856572151184,1777925865094157577
1777925865292389251,275.4489440917969,184.66348266601562,81.5888671875,243.10496520996094,87.40780639648438,74.61874389648438,0.0,0.0,0.0,0.0,0.0,0.0,0.0,0.0,0.4885774254798889,0.0,0.0,0.0,24.440000534057617,23.6299991607666,24.360000610351562,23.389999389648438,23.469999313354492,24.360000610351562,23.80123519897461,0.05559053644537926,-0.15996892750263214,0.02832174301147461,-1.1460847854614258,1777925865194216725
1777925865391385152,275.4489440917969,184.66348266601562,81.5888671875,243.10496520996094,87.40780639648438,74.61874389648438,0.0,0.0,0.0,0.0,0.0,0.0,0.0,0.0,0.52061527967453,0.0,0.0,0.0,24.520000457763672,23.6299991607666,24.360000610351562,23.229999542236328,23.549999237060547,24.440000534057617,23.80123519897461,0.049950916320085526,-0.16042748093605042,0.029113689437508583,-1.1442128419876099,1777925865294278724
1777925865492391676,275.4489440917969,184.66348266601562,81.5888671875,243.10496520996094,87.40780639648438,74.61874389648438,0.0,0.0,0.0,0.0,0.0,0.0,0.0,0.0,0.4965868890285492,0.0,0.0,0.0,24.520000457763672,23.709999084472656,24.280000686645508,23.309999465942383,23.469999313354492,24.440000534057617,23.80123519897461,0.04914525896310806,-0.16039052605628967,0.025688011199235916,-1.1438504457473755,1777925865394357761
1777925865592391860,275.4489440917969,184.66357421875,81.5888671875,243.10496520996094,87.40780639648438,74.61874389648438,0.0,0.0,0.0,0.0,0.0,0.0,0.0,0.0,0.48056793212890625,0.0,0.0,0.0,24.520000457763672,23.6299991607666,24.280000686645508,23.309999465942383,23.6299991607666,24.440000534057617,23.80123519897461,0.049950916320085526,-0.16042748093605042,0.028440553694963455,-1.1438429355621338,1777925865494420798
1777925865692394322,275.4489440917969,184.6633758544922,81.5888671875,243.10496520996094,87.40780639648438,74.61874389648438,0.0,0.0,0.0,0.0,0.0,0.0,0.0,0.0,0.4965868890285492,0.0,0.0,0.0,24.520000457763672,23.709999084472656,24.280000686645508,23.309999465942383,23.549999237060547,24.440000534057617,23.80123519897461,0.049950920045375824,-0.16225457191467285,0.027530193328857422,-1.1436505317687988,1777925865594480205
1777925865792392303,275.4489440917969,184.66348266601562,81.5888671875,243.10496520996094,87.40780639648438,74.61874389648438,0.0,0.0,0.0,0.0,0.0,0.0,0.0,0.0,0.4645490348339081,0.0,0.0,0.0,24.520000457763672,23.6299991607666,24.360000610351562,23.309999465942383,23.549999237060547,24.440000534057617,23.80123519897461,0.0483395978808403,-0.1634160578250885,0.026139814406633377,-1.1434805393218994,1777925865694555038
1777925865892391858,275.4489440917969,184.66357421875,81.5888671875,243.10496520996094,87.40780639648438,74.61874389648438,0.0,0.0,0.0,0.0,0.0,0.0,0.0,0.0,0.4645490348339081,0.0,0.0,0.0,24.520000457763672,23.6299991607666,24.200000762939453,23.389999389648438,23.549999237060547,24.440000534057617,23.80123519897461,0.04914525896310806,-0.16047914326190948,0.027204353362321854,-1.1463955640792847,1777925865794627556
1777925865991406685,275.4489440917969,184.66348266601562,81.5888671875,243.10496520996094,87.40780639648438,74.61874389648438,0.0,0.0,0.0,0.0,0.0,0.0,0.0,0.0,0.5286247134208679,0.0,0.0,0.0,24.520000457763672,23.6299991607666,24.360000610351562,23.389999389648438,23.6299991607666,24.440000534057617,23.80123519897461,0.049950920045375824,-0.16064921021461487,0.02348383143544197,-1.1452782154083252,1777925865894693130
1777925866091395851,275.4489440917969,184.66348266601562,81.5888671875,243.10496520996094,87.40780639648438,74.61874389648438,0.0,0.0,0.0,0.0,0.0,0.0,0.0,0.0,0.4885774254798889,0.0,0.0,0.0,24.520000457763672,23.6299991607666,24.280000686645508,23.389999389648438,23.6299991607666,24.520000457763672,23.80123519897461,0.04753393679857254,-0.16104140877723694,0.026117563247680664,-1.1432067155838013,1777925865994780463
1777925866192418856,275.4489440917969,184.66348266601562,81.5888671875,243.10496520996094,87.40780639648438,74.61874389648438,0.0,0.0,0.0,0.0,0.0,0.0,0.0,0.0,0.47255846858024597,0.0,0.0,0.0,24.520000457763672,23.6299991607666,24.360000610351562,23.309999465942383,23.549999237060547,24.440000534057617,23.80123519897461,0.05236789584159851,-0.16048629581928253,0.024526912719011307,-1.1425260305404663,1777925866094834167
1777925866292426689,275.4489440917969,184.66357421875,81.5888671875,243.10496520996094,87.40780639648438,74.61874389648438,0.0,0.0,0.0,0.0,0.0,0.0,0.0,0.0,0.5446437001228333,0.0,0.0,0.0,24.520000457763672,23.6299991607666,24.280000686645508,23.309999465942383,23.549999237060547,24.360000610351562,23.80123519897461,0.05156223848462105,-0.16332745552062988,0.026006698608398438,-1.1441683769226074,1777925866194835258
1777925866392411021,275.4489440917969,184.66357421875,81.5888671875,243.10496520996094,87.40780639648438,74.61874389648438,0.0,0.0,0.0,0.0,0.0,0.0,0.0,0.0,0.48056793212890625,0.0,0.0,0.0,24.520000457763672,23.6299991607666,24.280000686645508,23.309999465942383,23.6299991607666,24.360000610351562,23.80123519897461,0.0483395978808403,-0.16189217567443848,0.030245382338762283,-1.1430144309997559,1777925866294974796
1777925866492412113,275.4489440917969,184.6633758544922,81.5888671875,243.10496520996094,87.40780639648438,74.61874389648438,0.0,0.0,0.0,0.0,0.0,0.0,0.0,0.0,0.4885774254798889,0.0,0.0,0.0,24.520000457763672,23.549999237060547,24.280000686645508,23.309999465942383,23.549999237060547,24.440000534057617,23.80123519897461,0.04914525896310806,-0.1620991975069046,0.02771536447107792,-1.1436653137207031,1777925866394960721
1777925866592407427,275.4489440917969,184.66357421875,81.5888671875,243.10496520996094,87.40780639648438,74.61874389648438,0.0,0.0,0.0,0.0,0.0,0.0,0.0,0.0,0.5126057863235474,0.0,0.0,0.0,24.520000457763672,23.709999084472656,24.280000686645508,23.309999465942383,23.6299991607666,24.440000534057617,23.80123519897461,0.049950920045375824,-0.16210675239562988,0.02679784968495369,-1.1436653137207031,1777925866495081313
1777925866692408723,275.4489440917969,184.66348266601562,81.5888671875,243.10496520996094,87.40780639648438,74.61874389648438,0.0,0.0,0.0,0.0,0.0,0.0,0.0,0.0,0.4965868890285492,0.0,0.0,0.0,24.520000457763672,23.6299991607666,24.280000686645508,23.389999389648438,23.549999237060547,24.360000610351562,23.80123519897461,0.05236789956688881,-0.16299445927143097,0.029468536376953125,-1.1450858116149902,1777925866595164202
1777925866792413278,275.4489440917969,184.66348266601562,81.5888671875,243.10496520996094,87.40780639648438,74.61874389648438,0.0,0.0,0.0,0.0,0.0,0.0,0.0,0.0,0.4565395414829254,0.0,0.0,0.0,24.520000457763672,23.549999237060547,24.280000686645508,23.389999389648438,23.6299991607666,24.440000534057617,23.80123519897461,0.05317356064915657,-0.161818265914917,0.028676986694335938,-1.1455519199371338,1777925866695224479
1777925866892411629,275.4489440917969,184.6633758544922,81.5888671875,243.10496520996094,87.40780639648438,74.61874389648438,0.0,0.0,0.0,0.0,0.0,0.0,0.0,0.0,0.4885774254798889,0.0,0.0,0.0,24.520000457763672,23.6299991607666,24.360000610351562,23.389999389648438,23.549999237060547,24.440000534057617,23.80123519897461,0.05156223848462105,-0.1606198102235794,0.02766330912709236,-1.145389437675476,1777925866795295276
1777925866991422586,275.4489440917969,184.66348266601562,81.5888671875,243.10496520996094,87.40780639648438,74.61874389648438,0.0,0.0,0.0,0.0,0.0,0.0,0.0,0.0,0.5126057863235474,0.0,0.0,0.0,24.520000457763672,23.6299991607666,24.280000686645508,23.389999389648438,23.6299991607666,24.440000534057617,23.80123519897461,0.050756581127643585,-0.16093015670776367,0.025532642379403114,-1.146935224533081,1777925866895347960
1777925867092444406,275.4489440917969,184.66357421875,81.5888671875,243.10496520996094,87.40780639648438,74.61874389648438,0.0,0.0,0.0,0.0,0.0,0.0,0.0,0.0,0.5045963525772095,0.0,0.0,0.0,24.520000457763672,23.6299991607666,24.280000686645508,23.389999389648438,23.6299991607666,24.440000534057617,23.80123519897461,0.05236789956688881,-0.16151466965675354,0.02734541893005371,-1.1442720890045166,1777925866995378423
1777925867191416122,275.4489440917969,184.6633758544922,81.5888671875,243.10496520996094,87.40780639648438,74.61874389648438,0.0,0.0,0.0,0.0,0.0,0.0,0.0,0.0,0.48056793212890625,0.0,0.0,0.0,24.520000457763672,23.549999237060547,24.200000762939453,23.389999389648438,23.549999237060547,24.360000610351562,23.80123519897461,0.05397921800613403,-0.16073822975158691,0.027397075667977333,-1.144087314605713,1777925867095485608
1777925867291418325,275.4489440917969,184.6633758544922,81.5888671875,243.10496520996094,87.40780639648438,74.61874389648438,0.0,0.0,0.0,0.0,0.0,0.0,0.0,0.0,0.5045963525772095,0.0,0.0,0.0,24.440000534057617,23.709999084472656,24.280000686645508,23.389999389648438,23.6299991607666,24.440000534057617,23.80123519897461,0.05075657740235329,-0.16113758087158203,0.02671678736805916,-1.1463288068771362,1777925867195564163
1777925867391418435,275.4489440917969,184.6633758544922,81.5888671875,243.10496520996094,87.40780639648438,74.61874389648438,0.0,0.0,0.0,0.0,0.0,0.0,0.0,0.0,0.52061527967453,0.0,0.0,0.0,24.520000457763672,23.6299991607666,24.280000686645508,23.389999389648438,23.6299991607666,24.440000534057617,23.80123519897461,0.05800751969218254,-0.16060471534729004,0.027367670089006424,-1.1456258296966553,1777925867295653589
1777925867491421527,275.4489440917969,184.66357421875,81.5888671875,243.10496520996094,87.40780639648438,74.61874389648438,0.0,0.0,0.0,0.0,0.0,0.0,0.0,0.0,0.4885774254798889,0.0,0.0,0.0,24.520000457763672,23.709999084472656,24.280000686645508,23.309999465942383,23.549999237060547,24.440000534057617,23.80123519897461,0.05075657740235329,-0.16076762974262238,0.024290084838867188,-1.1451597213745117,1777925867395711589
1777925867591426582,275.4489440917969,184.66348266601562,81.5888671875,243.10496520996094,87.40780639648438,74.61874389648438,0.0,0.0,0.0,0.0,0.0,0.0,0.0,0.0,0.4885774254798889,0.0,0.0,0.0,24.600000381469727,23.549999237060547,24.280000686645508,23.309999465942383,23.6299991607666,24.440000534057617,23.80123519897461,0.05639619752764702,-0.15911062061786652,0.02835114672780037,-1.1456997394561768,1777925867495796625
1777925867691428767,275.4489440917969,184.66357421875,81.5888671875,243.10496520996094,87.40780639648438,74.61874389648438,0.0,0.0,0.0,0.0,0.0,0.0,0.0,0.0,0.4885774254798889,0.0,0.0,0.0,24.520000457763672,23.6299991607666,24.280000686645508,23.389999389648438,23.6299991607666,24.440000534057617,23.80123519897461,0.0483395978808403,-0.16188502311706543,0.02631664276123047,-1.1431844234466553,1777925867595873199
1777925867791424988,275.4488220214844,184.66348266601562,81.5888671875,243.10496520996094,87.40780639648438,74.61874389648438,0.0,0.0,0.0,0.0,0.0,0.0,0.0,0.0,0.52061527967453,0.0,0.0,0.0,24.520000457763672,23.709999084472656,24.280000686645508,23.389999389648438,23.549999237060547,24.440000534057617,23.80123519897461,0.05075657740235329,-0.15954692661762238,0.027559995651245117,-1.1455297470092773,1777925867695900958
1777925867891424673,275.4489440917969,184.66348266601562,81.5888671875,243.10496520996094,87.40780639648438,74.61874389648438,0.0,0.0,0.0,0.0,0.0,0.0,0.0,0.0,0.4645490348339081,0.0,0.0,0.0,24.520000457763672,23.6299991607666,24.360000610351562,23.389999389648438,23.549999237060547,24.440000534057617,23.80123519897461,0.0483395978808403,-0.15919168293476105,0.029920339584350586,-1.1418898105621338,1777925867795991254
1777925867991298079,275.4489440917969,184.66357421875,81.5888671875,243.10496520996094,87.40780639648438,74.61874389648438,0.0,0.0,0.0,0.0,0.0,0.0,0.0,0.0,0.5045963525772095,0.0,0.0,0.0,24.520000457763672,23.709999084472656,24.280000686645508,23.389999389648438,23.549999237060547,24.440000534057617,23.80123519897461,0.054784875363111496,-0.16066431999206543,0.027493635192513466,-1.1433398723602295,1777925867896060958
1777925868091432412,275.4489440917969,184.66357421875,81.5888671875,243.10496520996094,87.40780639648438,74.61874389648438,0.0,0.0,0.0,0.0,0.0,0.0,0.0,0.0,0.5126057863235474,0.0,0.0,0.0,24.520000457763672,23.6299991607666,24.360000610351562,23.389999389648438,23.469999313354492,24.440000534057617,23.801332473754883,0.05236789956688881,-0.16161838173866272,0.02841075137257576,-1.142333745956421,1777925867996123124
1777925868191303448,275.4489440917969,184.66357421875,81.5888671875,243.10496520996094,87.40780639648438,74.61874389648438,0.0,0.0,0.0,0.0,0.0,0.0,0.0,0.0,0.4885774254798889,0.0,0.0,0.0,24.520000457763672,23.6299991607666,24.280000686645508,23.469999313354492,23.6299991607666,24.440000534057617,23.801332473754883,0.05156223848462105,-0.16010919213294983,0.025266408920288086,-1.144464373588562,1777925868096188772
1777925868291307540,275.4489440917969,184.6633758544922,81.5888671875,243.10496520996094,87.40780639648438,74.61874389648438,0.0,0.0,0.0,0.0,0.0,0.0,0.0,0.0,0.4965868890285492,0.0,0.0,0.0,24.520000457763672,23.709999084472656,24.280000686645508,23.469999313354492,23.6299991607666,24.440000534057617,23.801332473754883,0.049950920045375824,-0.16157427430152893,0.029520193114876747,-1.1435842514038086,1777925868196236586
1777925868391304354,275.4489440917969,184.6633758544922,81.5888671875,243.10496520996094,87.40780639648438,74.61874389648438,0.0,0.0,0.0,0.0,0.0,0.0,0.0,0.0,0.0,0.0,0.0,0.0,0.0,0.0,0.0,0.0,0.0,0.0,23.801332473754883,0.0,0.0,0.0,0.0,1777925868196236586
1777925868491310112,275.4489440917969,184.66348266601562,81.5888671875,243.10496520996094,87.40780639648438,74.61874389648438,0.0,0.0,0.0,0.0,0.0,0.0,0.0,0.0,0.5045963525772095,0.0,0.0,0.0,24.520000457763672,23.709999084472656,24.200000762939453,23.389999389648438,23.6299991607666,24.440000534057617,23.801332473754883,0.04753394052386284,-0.16139665246009827,0.02864042855799198,-1.1424449682235718,1777925868396393363
1777925868591322075,275.4489440917969,184.66348266601562,81.5888671875,243.10496520996094,87.40780639648438,74.61874389648438,0.0,0.0,0.0,0.0,0.0,0.0,0.0,0.0,0.4965868890285492,0.0,0.0,0.0,24.520000457763672,23.709999084472656,24.200000762939453,23.229999542236328,23.6299991607666,24.440000534057617,23.801332473754883,0.049950920045375824,-0.16098220646381378,0.027523040771484375,-1.1444497108459473,1777925868496473382
1777925868691324389,275.4489440917969,184.66348266601562,81.5888671875,243.10496520996094,87.40780639648438,74.61874389648438,0.0,0.0,0.0,0.0,0.0,0.0,0.0,0.0,0.52061527967453,0.0,0.0,0.0,24.520000457763672,23.6299991607666,24.280000686645508,23.309999465942383,23.6299991607666,24.440000534057617,23.801332473754883,0.05397921800613403,-0.16226211190223694,0.026057958602905273,-1.143273115158081,1777925868596518029
1777925868791318333,275.4489440917969,184.66348266601562,81.5888671875,243.10496520996094,87.40780639648438,74.61874389648438,0.0,0.0,0.0,0.0,0.0,0.0,0.0,0.0,0.5045963525772095,0.0,0.0,0.0,24.520000457763672,23.549999237060547,24.200000762939453,23.309999465942383,23.549999237060547,24.440000534057617,23.801332473754883,0.05397922173142433,-0.1621953547000885,0.025569994002580643,-1.1453298330307007,1777925868696605826
1777925868891318517,275.4489440917969,184.66357421875,81.5888671875,243.10496520996094,87.40780639648438,74.61874389648438,0.0,0.0,0.0,0.0,0.0,0.0,0.0,0.0,0.4885774254798889,0.0,0.0,0.0,24.440000534057617,23.549999237060547,24.280000686645508,23.389999389648438,23.6299991607666,24.440000534057617,23.801332473754883,0.05236789956688881,-0.16238053143024445,0.029549598693847656,-1.1434733867645264,1777925868796694307
1777925868991319831,275.4489440917969,184.66357421875,81.5888671875,243.10496520996094,87.40780639648438,74.61874389648438,0.0,0.0,0.0,0.0,0.0,0.0,0.0,0.0,0.5766815543174744,0.0,0.0,0.0,24.520000457763672,23.6299991607666,24.280000686645508,23.389999389648438,23.469999313354492,24.520000457763672,23.801332473754883,0.055590540170669556,-0.1615595817565918,0.030289888381958008,-1.1446864604949951,1777925868896767658
1777925869092476726,275.4489440917969,184.6633758544922,81.5888671875,243.10496520996094,87.40780639648438,74.61874389648438,0.0,0.0,0.0,0.0,0.0,0.0,0.0,0.0,0.5045963525772095,0.0,0.0,0.0,24.520000457763672,23.6299991607666,24.280000686645508,23.389999389648438,23.549999237060547,24.440000534057617,23.801332473754883,0.05397921800613403,-0.1623435765504837,0.02803325653076172,-1.1448935270309448,1777925868996845047
1777925869191326145,275.4489440917969,184.66348266601562,81.5888671875,243.10496520996094,87.40780639648438,74.61874389648438,0.0,0.0,0.0,0.0,0.0,0.0,0.0,0.0,0.52061527967453,0.0,0.0,0.0,24.520000457763672,23.709999084472656,24.280000686645508,23.389999389648438,23.6299991607666,24.440000534057617,23.801332473754883,0.05156223848462105,-0.16271352767944336,0.02583622932434082,-1.1432806253433228,1777925869096860491
1777925869291332070,275.4489440917969,184.66348266601562,81.5888671875,243.10496520996094,87.40780639648438,74.61874389648438,0.0,0.0,0.0,0.0,0.0,0.0,0.0,0.0,0.5126057863235474,0.0,0.0,0.0,24.520000457763672,23.709999084472656,24.360000610351562,23.229999542236328,23.6299991607666,24.360000610351562,23.801332473754883,0.05317355692386627,-0.16258040070533752,0.027041831985116005,-1.1441019773483276,1777925869196959658
1777925869391342292,275.4489440917969,184.66357421875,81.5888671875,243.10496520996094,87.40780639648438,74.61874389648438,0.0,0.0,0.0,0.0,0.0,0.0,0.0,0.0,0.5045963525772095,0.0,0.0,0.0,24.520000457763672,23.6299991607666,24.360000610351562,23.389999389648438,23.6299991607666,24.440000534057617,23.801332473754883,0.05075657740235329,-0.1618405133485794,0.030889112502336502,-1.14609956741333,1777925869297016176
1777925869491329513,275.4489440917969,184.66357421875,81.5888671875,243.10496520996094,87.40780639648438,74.61874389648438,0.0,0.0,0.0,0.0,0.0,0.0,0.0,0.0,0.5045963525772095,0.0,0.0,0.0,24.520000457763672,23.709999084472656,24.280000686645508,23.309999465942383,23.469999313354492,24.360000610351562,23.801332473754883,0.05397921800613403,-0.15973925590515137,0.02764105796813965,-1.1460474729537964,1777925869397099120
1777925869591326327,275.4489440917969,184.66348266601562,81.5888671875,243.10496520996094,87.40780639648438,74.61874389648438,0.0,0.0,0.0,0.0,0.0,0.0,0.0,0.0,0.5126057863235474,0.0,0.0,0.0,24.520000457763672,23.6299991607666,24.280000686645508,23.389999389648438,23.6299991607666,24.440000534057617,23.801332473754883,0.06123015657067299,-0.16050894558429718,0.029661256819963455,-1.1466467380523682,1777925869497179990
1777925869691329178,275.4489440917969,184.66357421875,81.5888671875,243.10496520996094,87.40780639648438,74.61874389648438,0.0,0.0,0.0,0.0,0.0,0.0,0.0,0.0,0.48056793212890625,0.0,0.0,0.0,24.520000457763672,23.6299991607666,24.280000686645508,23.389999389648438,23.6299991607666,24.440000534057617,23.801332473754883,0.05236789956688881,-0.16186276078224182,0.029528141021728516,-1.144997239112854,1777925869597227064
1777925869791335400,275.4489440917969,184.6633758544922,81.5888671875,243.10496520996094,87.40780639648438,74.61874389648438,0.0,0.0,0.0,0.0,0.0,0.0,0.0,0.0,0.4645490348339081,0.0,0.0,0.0,24.520000457763672,23.549999237060547,24.280000686645508,23.389999389648438,23.549999237060547,24.360000610351562,23.801332473754883,0.05317356064915657,-0.1601608544588089,0.027138391509652138,-1.1463582515716553,1777925869697312675
1777925869891325585,275.4489440917969,184.6633758544922,81.5888671875,243.10496520996094,87.40780639648438,74.61874389648438,0.0,0.0,0.0,0.0,0.0,0.0,0.0,0.0,0.4965868890285492,0.0,0.0,0.0,24.520000457763672,23.6299991607666,24.280000686645508,23.389999389648438,23.6299991607666,24.440000534057617,23.801332473754883,0.05156223848462105,-0.1636381894350052,0.031110841780900955,-1.1418306827545166,1777925869797388545
1777925869991340973,275.4489440917969,184.66348266601562,81.5888671875,243.10496520996094,87.40780639648438,74.61874389648438,0.0,0.0,0.0,0.0,0.0,0.0,0.0,0.0,0.4965868890285492,0.0,0.0,0.0,24.440000534057617,23.549999237060547,24.200000762939453,23.309999465942383,23.549999237060547,24.440000534057617,23.801332473754883,0.05317355692386627,-0.16176660358905792,0.02832968905568123,-1.1433179378509521,1777925869897453767
1777925870091331583,275.4489440917969,184.6633758544922,81.5888671875,243.10496520996094,87.40780639648438,74.61874389648438,0.0,0.0,0.0,0.0,0.0,0.0,0.0,0.0,0.48056793212890625,0.0,0.0,0.0,24.520000457763672,23.6299991607666,24.280000686645508,23.389999389648438,23.6299991607666,24.440000534057617,23.801332473754883,0.05800751969218254,-0.16214370727539062,0.02403855323791504,-1.1456704139709473,1777925869997528007
1777925870191340379,275.4489440917969,184.66348266601562,81.5888671875,243.10496520996094,87.40780639648438,74.61874389648438,0.0,0.0,0.0,0.0,0.0,0.0,0.0,0.0,0.5045963525772095,0.0,0.0,0.0,24.520000457763672,23.709999084472656,24.280000686645508,23.389999389648438,23.549999237060547,24.440000534057617,23.801332473754883,0.05397921800613403,-0.16363103687763214,0.025532642379403114,-1.1451971530914307,1777925870097596655
1777925870292345069,275.4489440917969,184.66348266601562,81.5888671875,243.10496520996094,87.40780639648438,74.61874389648438,0.0,0.0,0.0,0.0,0.0,0.0,0.0,0.0,0.52061527967453,0.0,0.0,0.0,24.520000457763672,23.6299991607666,24.360000610351562,23.389999389648438,23.549999237060547,24.360000610351562,23.801332473754883,0.049950920045375824,-0.16204038262367249,0.02692381478846073,-1.1454335451126099,1777925870197675247
1777925870391359192,275.4489440917969,184.66348266601562,81.5888671875,243.10496520996094,87.40780639648438,74.61874389648438,0.0,0.0,0.0,0.0,0.0,0.0,0.0,0.0,0.5446437001228333,0.0,0.0,0.0,24.520000457763672,23.6299991607666,24.360000610351562,23.229999542236328,23.549999237060547,24.360000610351562,23.801332473754883,0.05156223848462105,-0.1624397337436676,0.02716064453125,-1.1459887027740479,1777925870297743692
1777925870491341877,275.4489440917969,184.6633758544922,81.5888671875,243.10496520996094,87.40780639648438,74.61874389648438,0.0,0.0,0.0,0.0,0.0,0.0,0.0,0.0,0.5126057863235474,0.0,0.0,0.0,24.600000381469727,23.6299991607666,24.280000686645508,23.309999465942383,23.6299991607666,24.440000534057617,23.801332473754883,0.04914525896310806,-0.1612488329410553,0.029853183776140213,-1.1436505317687988,1777925870397796228
1777925870591348895,275.4489440917969,184.66348266601562,81.5888671875,243.10496520996094,87.40780639648438,74.61874389648438,0.0,0.0,0.0,0.0,0.0,0.0,0.0,0.0,0.5446437001228333,0.0,0.0,0.0,24.520000457763672,23.6299991607666,24.360000610351562,23.389999389648438,23.6299991607666,24.440000534057617,23.801332473754883,0.054784879088401794,-0.1605013906955719,0.027885833755135536,-1.1452264785766602,1777925870497901561
1777925870691349635,275.4489440917969,184.66357421875,81.5888671875,243.10496520996094,87.40780639648438,74.61874389648438,0.0,0.0,0.0,0.0,0.0,0.0,0.0,0.0,0.5045963525772095,0.0,0.0,0.0,24.520000457763672,23.6299991607666,24.280000686645508,23.389999389648438,23.549999237060547,24.440000534057617,23.801332473754883,0.05075657740235329,-0.1617884635925293,0.025904972106218338,-1.1430219411849976,1777925870597920487
1777925870791345412,275.4489440917969,184.66357421875,81.5888671875,243.10496520996094,87.40780639648438,74.61874389648438,0.0,0.0,0.0,0.0,0.0,0.0,0.0,0.0,0.5286247134208679,0.0,0.0,0.0,24.520000457763672,23.709999084472656,24.360000610351562,23.389999389648438,23.469999313354492,24.440000534057617,23.801332473754883,0.05397921800613403,-0.16255059838294983,0.02505183219909668,-1.1436951160430908,1777925870698026524
1777925870891349800,275.4489440917969,184.66348266601562,81.5888671875,243.10496520996094,87.40780639648438,74.61874389648438,0.0,0.0,0.0,0.0,0.0,0.0,0.0,0.0,0.4965868890285492,0.0,0.0,0.0,24.520000457763672,23.6299991607666,24.280000686645508,23.309999465942383,23.6299991607666,24.440000534057617,23.801332473754883,0.05639620125293732,-0.16218820214271545,0.028240282088518143,-1.1412906646728516,1777925870798073005
1777925870991350262,275.4489440917969,184.66348266601562,81.5888671875,243.10496520996094,87.40780639648438,74.61874389648438,0.0,0.0,0.0,0.0,0.0,0.0,0.0,0.0,0.48056793212890625,0.0,0.0,0.0,24.520000457763672,23.709999084472656,24.360000610351562,23.469999313354492,23.6299991607666,24.520000457763672,23.801332473754883,0.0483395978808403,-0.1627580225467682,0.024741092696785927,-1.14243745803833,1777925870898139708
1777925871091359632,275.4489440917969,184.6633758544922,81.5888671875,243.10496520996094,87.40780639648438,74.61874389648438,0.0,0.0,0.0,0.0,0.0,0.0,0.0,0.0,0.4885774254798889,0.0,0.0,0.0,24.520000457763672,23.6299991607666,24.200000762939453,23.309999465942383,23.549999237060547,24.440000534057617,23.801332473754883,0.05075657740235329,-0.16039052605628967,0.02686421014368534,-1.1436799764633179,1777925870998197319
1777925871191355243,275.4489440917969,184.66357421875,81.5888671875,243.10496520996094,87.40780639648438,74.61874389648438,0.0,0.0,0.0,0.0,0.0,0.0,0.0,0.0,0.5045963525772095,0.0,0.0,0.0,24.520000457763672,23.6299991607666,24.280000686645508,23.389999389648438,23.549999237060547,24.440000534057617,23.801332473754883,0.05075657740235329,-0.16145586967468262,0.026723939925432205,-1.1426368951797485,1777925871098211152
1777925871291370964,275.4489440917969,184.66357421875,81.5888671875,243.10496520996094,87.40780639648438,74.61874389648438,0.0,0.0,0.0,0.0,0.0,0.0,0.0,0.0,0.4965868890285492,0.0,0.0,0.0,24.520000457763672,23.6299991607666,24.280000686645508,23.309999465942383,23.549999237060547,24.360000610351562,23.801332473754883,0.049950920045375824,-0.1610267162322998,0.025370121002197266,-1.1431772708892822,1777925871198328466
1777925871390866368,275.4489440917969,184.66357421875,81.5888671875,243.10496520996094,87.40780639648438,74.61874389648438,0.0,0.0,0.0,0.0,0.0,0.0,0.0,0.0,0.4885774254798889,0.0,0.0,0.0,24.520000457763672,23.549999237060547,24.280000686645508,23.389999389648438,23.549999237060547,24.440000534057617,23.801332473754883,0.05156223848462105,-0.16264677047729492,0.028780698776245117,-1.1408097743988037,1777925871298404077
1777925871491361907,275.4489440917969,184.66348266601562,81.5888671875,243.10496520996094,87.40780639648438,74.61874389648438,0.0,0.0,0.0,0.0,0.0,0.0,0.0,0.0,0.4965868890285492,0.0,0.0,0.0,24.520000457763672,23.6299991607666,24.280000686645508,23.229999542236328,23.549999237060547,24.360000610351562,23.801332473754883,0.049950920045375824,-0.16202528774738312,0.02573251724243164,-1.1426297426223755,1777925871398449744
1777925871591356203,275.4489440917969,184.66348266601562,81.5888671875,243.10496520996094,87.40780639648438,74.61874389648438,0.0,0.0,0.0,0.0,0.0,0.0,0.0,0.0,0.6167288422584534,0.0,0.0,0.0,24.520000457763672,23.6299991607666,24.200000762939453,23.309999465942383,23.549999237060547,24.440000534057617,23.801332473754883,0.07009242475032806,-0.1619366705417633,0.025872785598039627,-1.143561601638794,1777925871498511040
1777925871691358202,275.4489440917969,184.66348266601562,81.5888671875,243.10496520996094,87.40780639648438,74.61874389648438,0.0,0.0,0.0,0.0,0.0,0.0,0.0,0.0,0.47255846858024597,0.0,0.0,0.0,24.520000457763672,23.549999237060547,24.200000762939453,23.389999389648438,23.469999313354492,24.440000534057617,23.801332473754883,0.04753393679857254,-0.16076762974262238,0.02460082247853279,-1.1443320512771606,1777925871598606651
1777925871791364590,275.4489440917969,184.66348266601562,81.5888671875,243.10496520996094,87.40780639648438,74.61874389648438,0.0,0.0,0.0,0.0,0.0,0.0,0.0,0.0,0.4965868890285492,0.0,0.0,0.0,24.520000457763672,23.6299991607666,24.280000686645508,23.389999389648438,23.549999237060547,24.440000534057617,23.801332473754883,0.05156223848462105,-0.16120393574237823,0.025584299117326736,-1.1426074504852295,1777925871698688447
1777925871891362831,275.4489440917969,184.66357421875,81.5888671875,243.10496520996094,87.40780639648438,74.61874389648438,0.0,0.0,0.0,0.0,0.0,0.0,0.0,0.0,0.4965868890285492,0.0,0.0,0.0,24.520000457763672,23.6299991607666,24.280000686645508,23.309999465942383,23.549999237060547,24.440000534057617,23.801332473754883,0.05397922173142433,-0.16192913055419922,0.027648210525512695,-1.143606424331665,1777925871798730298
1777925871991358811,275.4489440917969,184.6633758544922,81.5888671875,243.10496520996094,87.40780639648438,74.61874389648438,0.0,0.0,0.0,0.0,0.0,0.0,0.0,0.0,0.5045963525772095,0.0,0.0,0.0,24.520000457763672,23.709999084472656,24.360000610351562,23.309999465942383,23.549999237060547,24.440000534057617,23.801332473754883,0.05075657740235329,-0.16115227341651917,0.02666473388671875,-1.1433327198028564,1777925871898786057
1777925872091359255,275.4489440917969,184.66357421875,81.5888671875,243.10496520996094,87.40780639648438,74.61874389648438,0.0,0.0,0.0,0.0,0.0,0.0,0.0,0.0,0.47255846858024597,0.0,0.0,0.0,24.520000457763672,23.6299991607666,24.280000686645508,23.389999389648438,23.6299991607666,24.440000534057617,23.801332473754883,0.0483395978808403,-0.16225457191467285,0.024504661560058594,-1.1438727378845215,1777925871998888816
1777925872191380680,275.4489440917969,184.66348266601562,81.5888671875,243.10496520996094,87.40780639648438,74.61874389648438,0.0,0.0,0.0,0.0,0.0,0.0,0.0,0.0,0.4965868890285492,0.0,0.0,0.0,24.440000534057617,23.709999084472656,24.360000610351562,23.229999542236328,23.549999237060547,24.440000534057617,23.801332473754883,0.05156223848462105,-0.1623435765504837,0.026746192947030067,-1.144338846206665,1777925872098957742
1777925872291092974,275.4489440917969,184.6633758544922,81.5888671875,243.10496520996094,87.40780639648438,74.61874389648438,0.0,0.0,0.0,0.0,0.0,0.0,0.0,0.0,0.52061527967453,0.0,0.0,0.0,24.520000457763672,23.709999084472656,24.360000610351562,23.389999389648438,23.549999237060547,24.440000534057617,23.801332473754883,0.05236789956688881,-0.16268372535705566,0.027782121673226357,-1.1434359550476074,1777925872199016204
1777925872391373253,275.4489440917969,184.6633758544922,81.5888671875,243.10496520996094,87.40780639648438,74.61874389648438,0.0,0.0,0.0,0.0,0.0,0.0,0.0,0.0,0.5045963525772095,0.0,0.0,0.0,24.520000457763672,23.709999084472656,24.280000686645508,23.389999389648438,23.549999237060547,24.440000534057617,23.801332473754883,0.05639619752764702,-0.16177375614643097,0.026205778121948242,-1.1450488567352295,1777925872299074834
1777925872491374901,275.4489440917969,184.66348266601562,81.5888671875,243.10496520996094,87.40780639648438,74.61874389648438,0.0,0.0,0.0,0.0,0.0,0.0,0.0,0.0,0.48056793212890625,0.0,0.0,0.0,24.520000457763672,23.6299991607666,24.360000610351562,23.389999389648438,23.549999237060547,24.440000534057617,23.801332473754883,0.05397921800613403,-0.1592143326997757,0.025754768401384354,-1.1458404064178467,1777925872399155130
1777925872591372381,275.4489440917969,184.66348266601562,81.5888671875,243.10496520996094,87.40780639648438,74.61874389648438,0.0,0.0,0.0,0.0,0.0,0.0,0.0,0.0,0.48056793212890625,0.0,0.0,0.0,24.520000457763672,23.6299991607666,24.280000686645508,23.309999465942383,23.549999237060547,24.440000534057617,23.801332473754883,0.05075657740235329,-0.16151466965675354,0.025554895401000977,-1.145033836364746,1777925872499222055
1777925872691382622,275.4489440917969,184.66348266601562,81.5888671875,243.10496520996094,87.40780639648438,74.61874389648438,0.0,0.0,0.0,0.0,0.0,0.0,0.0,0.0,0.48056793212890625,0.0,0.0,0.0,24.520000457763672,23.6299991607666,24.360000610351562,23.229999542236328,23.469999313354492,24.440000534057617,23.801332473754883,0.05156223848462105,-0.16056814789772034,0.028247833251953125,-1.1444941759109497,1777925872599280796
1777925872791395399,275.4489440917969,184.66357421875,81.5888671875,243.10496520996094,87.40780639648438,74.61874389648438,0.0,0.0,0.0,0.0,0.0,0.0,0.0,0.0,0.5045963525772095,0.0,0.0,0.0,24.440000534057617,23.709999084472656,24.280000686645508,23.389999389648438,23.6299991607666,24.520000457763672,23.801332473754883,0.051562242209911346,-0.15904386341571808,0.027485687285661697,-1.143554449081421,1777925872699361499
1777925872891378916,275.4489440917969,184.66348266601562,81.5888671875,243.10496520996094,87.40780639648438,74.61874389648438,0.0,0.0,0.0,0.0,0.0,0.0,0.0,0.0,0.52061527967453,0.0,0.0,0.0,24.520000457763672,23.709999084472656,24.360000610351562,23.389999389648438,23.549999237060547,24.440000534057617,23.801332473754883,0.04914525896310806,-0.16141891479492188,0.02477804757654667,-1.1453965902328491,1777925872799428832
1777925872991381175,275.4489440917969,184.66357421875,81.5888671875,243.10496520996094,87.40780639648438,74.61874389648438,0.0,0.0,0.0,0.0,0.0,0.0,0.0,0.0,0.48056793212890625,0.0,0.0,0.0,24.520000457763672,23.6299991607666,24.280000686645508,23.389999389648438,23.6299991607666,24.440000534057617,23.801332473754883,0.04914525896310806,-0.1622251570224762,0.027249256148934364,-1.145115613937378,1777925872899471498
1777925873091385360,275.4489440917969,184.66348266601562,81.5888671875,243.10496520996094,87.40780639648438,74.61874389648438,0.0,0.0,0.0,0.0,0.0,0.0,0.0,0.0,0.5126057863235474,0.0,0.0,0.0,24.520000457763672,23.6299991607666,24.280000686645508,23.389999389648438,23.549999237060547,24.520000457763672,23.80126953125,0.05156223848462105,-0.16022761166095734,0.027441978454589844,-1.1445382833480835,1777925872999567017
1777925873191388359,275.4489440917969,184.66348266601562,81.5888671875,243.10496520996094,87.40780639648438,74.61874389648438,0.0,0.0,0.0,0.0,0.0,0.0,0.0,0.0,0.52061527967453,0.0,0.0,0.0,24.440000534057617,23.709999084472656,24.200000762939453,23.389999389648438,23.549999237060547,24.520000457763672,23.80126953125,0.05397921800613403,-0.16283154487609863,0.024756193161010742,-1.1417567729949951,1777925873099637720
1777925873291391229,275.4489440917969,184.66348266601562,81.5888671875,243.10496520996094,87.40780639648438,74.61874389648438,0.0,0.0,0.0,0.0,0.0,0.0,0.0,0.0,0.48056793212890625,0.0,0.0,0.0,24.520000457763672,23.6299991607666,24.280000686645508,23.389999389648438,23.6299991607666,24.440000534057617,23.80126953125,0.05800751596689224,-0.16020536422729492,0.029712915420532227,-1.1461436748504639,1777925873199704627
1777925873391390135,275.4489440917969,184.6633758544922,81.5888671875,243.10496520996094,87.40780639648438,74.61874389648438,0.0,0.0,0.0,0.0,0.0,0.0,0.0,0.0,0.5286247134208679,0.0,0.0,0.0,24.520000457763672,23.6299991607666,24.360000610351562,23.389999389648438,23.6299991607666,24.520000457763672,23.80126953125,0.05317355692386627,-0.15919923782348633,0.02964615821838379,-1.1463288068771362,1777925873299775201
1777925873491392987,275.4489440917969,184.6633758544922,81.5888671875,243.10496520996094,87.40780639648438,74.61874389648438,0.0,0.0,0.0,0.0,0.0,0.0,0.0,0.0,0.4965868890285492,0.0,0.0,0.0,24.520000457763672,23.709999084472656,24.200000762939453,23.389999389648438,23.6299991607666,24.440000534057617,23.80126953125,0.050756581127643585,-0.16054590046405792,0.028233129531145096,-1.1462843418121338,1777925873399839071
1777925873591393004,275.4489440917969,184.66357421875,81.5888671875,243.10496520996094,87.40780639648438,74.61874389648438,0.0,0.0,0.0,0.0,0.0,0.0,0.0,0.0,0.52061527967453,0.0,0.0,0.0,24.520000457763672,23.6299991607666,24.280000686645508,23.389999389648438,23.549999237060547,24.440000534057617,23.80126953125,0.05317356064915657,-0.1599319726228714,0.025947093963623047,-1.1454041004180908,1777925873499899682
1777925873691397930,275.4489440917969,184.66348266601562,81.5888671875,243.10496520996094,87.40780639648438,74.61874389648438,0.0,0.0,0.0,0.0,0.0,0.0,0.0,0.0,0.5045963525772095,0.0,0.0,0.0,24.520000457763672,23.6299991607666,24.360000610351562,23.389999389648438,23.549999237060547,24.360000610351562,23.80126953125,0.06123015657067299,-0.1608121395111084,0.02832174301147461,-1.1441612243652344,1777925873599983422
1777925873791391096,275.4489440917969,184.66357421875,81.5888671875,243.10496520996094,87.40780639648438,74.61874389648438,0.0,0.0,0.0,0.0,0.0,0.0,0.0,0.0,0.4885774254798889,0.0,0.0,0.0,24.520000457763672,23.6299991607666,24.280000686645508,23.229999542236328,23.6299991607666,24.440000534057617,23.80126953125,0.04914525896310806,-0.16180315613746643,0.027249256148934364,-1.1457664966583252,1777925873700051200
1777925873891398206,275.4489440917969,184.66357421875,81.5888671875,243.10496520996094,87.40780639648438,74.61874389648438,0.0,0.0,0.0,0.0,0.0,0.0,0.0,0.0,0.5045963525772095,0.0,0.0,0.0,24.440000534057617,23.6299991607666,24.280000686645508,23.389999389648438,23.549999237060547,24.440000534057617,23.80126953125,0.05075657740235329,-0.16111572086811066,0.026849905028939247,-1.1446495056152344,1777925873800100551
1777925873991392872,275.4489440917969,184.66348266601562,81.5888671875,243.10496520996094,87.40780639648438,74.61874389648438,0.0,0.0,0.0,0.0,0.0,0.0,0.0,0.0,0.48056793212890625,0.0,0.0,0.0,24.520000457763672,23.6299991607666,24.280000686645508,23.389999389648438,23.549999237060547,24.440000534057617,23.80126953125,0.050756581127643585,-0.16098220646381378,0.025910139083862305,-1.1452118158340454,1777925873900177625
1777925874091402723,275.4489440917969,184.66348266601562,81.5888671875,243.10496520996094,87.40780639648438,74.61874389648438,0.0,0.0,0.0,0.0,0.0,0.0,0.0,0.0,0.5126057863235474,0.0,0.0,0.0,24.440000534057617,23.6299991607666,24.280000686645508,23.389999389648438,23.549999237060547,24.440000534057617,23.80126953125,0.05236789956688881,-0.1619831621646881,0.025791723281145096,-1.1447826623916626,1777925874000242606
1777925874191399612,275.4489440917969,184.6633758544922,81.5888671875,243.10496520996094,87.40780639648438,74.61874389648438,0.0,0.0,0.0,0.0,0.0,0.0,0.0,0.0,0.5126057863235474,0.0,0.0,0.0,24.520000457763672,23.6299991607666,24.280000686645508,23.389999389648438,23.549999237060547,24.440000534057617,23.80126953125,0.05075657740235329,-0.16032376885414124,0.028359094634652138,-1.1457366943359375,1777925874100317217
1777925874291403889,275.4489440917969,184.6633758544922,81.5888671875,243.10496520996094,87.40780639648438,74.61874389648438,0.0,0.0,0.0,0.0,0.0,0.0,0.0,0.0,0.5045963525772095,0.0,0.0,0.0,24.520000457763672,23.6299991607666,24.280000686645508,23.309999465942383,23.6299991607666,24.440000534057617,23.80126953125,0.05397921800613403,-0.1605013906955719,0.02570311166346073,-1.1439836025238037,1777925874200361569
1777925874391408277,275.4489440917969,184.6633758544922,81.5888671875,243.10496520996094,87.40780639648438,74.61874389648438,0.0,0.0,0.0,0.0,0.0,0.0,0.0,0.0,0.5045963525772095,0.0,0.0,0.0,24.520000457763672,23.709999084472656,24.360000610351562,23.389999389648438,23.549999237060547,24.440000534057617,23.80126953125,0.05800751969218254,-0.16164779663085938,0.02596934512257576,-1.1425704956054688,1777925874300432717
1777925874491491962,275.4489440917969,184.66348266601562,81.5888671875,243.10496520996094,87.40780639648438,74.61874389648438,0.0,0.0,0.0,0.0,0.0,0.0,0.0,0.0,0.5126057863235474,0.0,0.0,0.0,24.440000534057617,23.6299991607666,24.280000686645508,23.389999389648438,23.549999237060547,24.440000534057617,23.80126953125,0.054784879088401794,-0.16136685013771057,0.027855634689331055,-1.1432511806488037,1777925874400506253
1777925874591475072,275.4489440917969,184.66357421875,81.5888671875,243.10496520996094,87.40780639648438,74.61874389648438,0.0,0.0,0.0,0.0,0.0,0.0,0.0,0.0,0.4885774254798889,0.0,0.0,0.0,24.520000457763672,23.6299991607666,24.280000686645508,23.309999465942383,23.549999237060547,24.360000610351562,23.80126953125,0.05236789956688881,-0.16220290958881378,0.023431777954101562,-1.141512393951416,1777925874500551734
1777925874691446423,275.4489440917969,184.66357421875,81.5888671875,243.10496520996094,87.40780639648438,74.61874389648438,0.0,0.0,0.0,0.0,0.0,0.0,0.0,0.0,0.5126057863235474,0.0,0.0,0.0,24.520000457763672,23.6299991607666,24.360000610351562,23.309999465942383,23.549999237060547,24.440000534057617,23.80126953125,0.05236789956688881,-0.1611967831850052,0.027330318465828896,-1.1422375440597534,1777925874600587715
1777925874791416737,275.4489440917969,184.66348266601562,81.5888671875,243.10496520996094,87.40780639648438,74.61874389648438,0.0,0.0,0.0,0.0,0.0,0.0,0.0,0.0,0.5045963525772095,0.0,0.0,0.0,24.520000457763672,23.709999084472656,24.280000686645508,23.389999389648438,23.6299991607666,24.440000534057617,23.80126953125,0.05156223848462105,-0.16033847630023956,0.024985074996948242,-1.1430442333221436,1777925874700760419
1777925874891412496,275.4489440917969,184.6633758544922,81.5888671875,243.10496520996094,87.40780639648438,74.61874389648438,0.0,0.0,0.0,0.0,0.0,0.0,0.0,0.0,0.4565395414829254,0.0,0.0,0.0,24.520000457763672,23.709999084472656,24.280000686645508,23.389999389648438,23.549999237060547,24.440000534057617,23.80126953125,0.05075657740235329,-0.16151466965675354,0.026561418548226357,-1.1437097787857056,1777925874800821215
1777925874991412291,275.4489440917969,184.66357421875,81.5888671875,243.10496520996094,87.40780639648438,74.61874389648438,0.0,0.0,0.0,0.0,0.0,0.0,0.0,0.0,0.4885774254798889,0.0,0.0,0.0,24.520000457763672,23.6299991607666,24.280000686645508,23.309999465942383,23.549999237060547,24.360000610351562,23.80126953125,0.05559053644537926,-0.161433607339859,0.02741018868982792,-1.1439096927642822,1777925874900812085
1777925875091422217,275.4489440917969,184.66357421875,81.5888671875,243.10496520996094,87.40780639648438,74.61874389648438,0.0,0.0,0.0,0.0,0.0,0.0,0.0,0.0,0.4885774254798889,0.0,0.0,0.0,24.600000381469727,23.549999237060547,24.360000610351562,23.389999389648438,23.6299991607666,24.440000534057617,23.80126953125,0.0483395978808403,-0.16294994950294495,0.023639202117919922,-1.1429623365402222,1777925875000912178
1777925875191435568,275.4489440917969,184.66357421875,81.5888671875,243.10496520996094,87.40780639648438,74.61874389648438,0.0,0.0,0.0,0.0,0.0,0.0,0.0,0.0,0.44853007793426514,0.0,0.0,0.0,24.520000457763672,23.6299991607666,24.200000762939453,23.389999389648438,23.549999237060547,24.440000534057617,23.80126953125,0.05800751969218254,-0.16160368919372559,0.025303760543465614,-1.1451597213745117,1777925875101011381
1777925875291423752,275.4489440917969,184.66348266601562,81.5888671875,243.10496520996094,87.40780639648438,74.61874389648438,0.0,0.0,0.0,0.0,0.0,0.0,0.0,0.0,0.5045963525772095,0.0,0.0,0.0,24.520000457763672,23.6299991607666,24.360000610351562,23.389999389648438,23.549999237060547,24.520000457763672,23.80126953125,0.05397921800613403,-0.16187746822834015,0.028632480651140213,-1.1422204971313477,1777925875201080029
1777925875391420178,275.4489440917969,184.66348266601562,81.5888671875,243.10496520996094,87.40780639648438,74.61874389648438,0.0,0.0,0.0,0.0,0.0,0.0,0.0,0.0,0.48056793212890625,0.0,0.0,0.0,24.520000457763672,23.709999084472656,24.280000686645508,23.389999389648438,23.549999237060547,24.520000457763672,23.80126953125,0.049950920045375824,-0.16235072910785675,0.023609399795532227,-1.1446495056152344,1777925875301147695
1777925875491420844,275.4489440917969,184.66357421875,81.5888671875,243.10496520996094,87.40780639648438,74.61874389648438,0.0,0.0,0.0,0.0,0.0,0.0,0.0,0.0,0.52061527967453,0.0,0.0,0.0,24.520000457763672,23.6299991607666,24.280000686645508,23.309999465942383,23.6299991607666,24.440000534057617,23.80126953125,0.05639619380235672,-0.16259510815143585,0.02647995948791504,-1.1431399583816528,1777925875401222880
1777925875591420713,275.4489440917969,184.66348266601562,81.5888671875,243.10496520996094,87.40780639648438,74.61874389648438,0.0,0.0,0.0,0.0,0.0,0.0,0.0,0.0,0.48056793212890625,0.0,0.0,0.0,24.520000457763672,23.6299991607666,24.280000686645508,23.309999465942383,23.6299991607666,24.440000534057617,23.80126953125,0.049950916320085526,-0.1610044538974762,0.029261112213134766,-1.1449086666107178,1777925875501293232
1777925875691425065,275.4489440917969,184.66348266601562,81.5888671875,243.10496520996094,87.40780639648438,74.61874389648438,0.0,0.0,0.0,0.0,0.0,0.0,0.0,0.0,0.5446437001228333,0.0,0.0,0.0,24.600000381469727,23.6299991607666,24.360000610351562,23.389999389648438,23.549999237060547,24.440000534057617,23.80126953125,0.0483395978808403,-0.16228437423706055,0.025747615844011307,-1.143532156944275,1777925875601428139
1777925875791304934,275.4489440917969,184.66348266601562,81.5888671875,243.10496520996094,87.40780639648438,74.61874389648438,0.0,0.0,0.0,0.0,0.0,0.0,0.0,0.0,0.48056793212890625,0.0,0.0,0.0,24.520000457763672,23.6299991607666,24.280000686645508,23.389999389648438,23.6299991607666,24.440000534057617,23.80126953125,0.049950920045375824,-0.16224701702594757,0.0257619209587574,-1.1442056894302368,1777925875701478250
1777925875891299248,275.4489440917969,184.66357421875,81.5888671875,243.10496520996094,87.40780639648438,74.61874389648438,0.0,0.0,0.0,0.0,0.0,0.0,0.0,0.0,0.4885774254798889,0.0,0.0,0.0,24.520000457763672,23.6299991607666,24.280000686645508,23.389999389648438,23.6299991607666,24.520000457763672,23.80126953125,0.0483395978808403,-0.1623213291168213,0.021596748381853104,-1.1440129280090332,1777925875801483694
1777925875991304377,275.4489440917969,184.66348266601562,81.5888671875,243.10496520996094,87.40780639648438,74.61874389648438,0.0,0.0,0.0,0.0,0.0,0.0,0.0,0.0,0.5126057863235474,0.0,0.0,0.0,24.600000381469727,23.6299991607666,24.360000610351562,23.389999389648438,23.549999237060547,24.440000534057617,23.80126953125,0.05075657740235329,-0.16107836365699768,0.028107166290283203,-1.1446348428726196,1777925875901614972
1777925876091432673,275.4489440917969,184.66348266601562,81.5888671875,243.10496520996094,87.40780639648438,74.61874389648438,0.0,0.0,0.0,0.0,0.0,0.0,0.0,0.0,0.4885774254798889,0.0,0.0,0.0,24.520000457763672,23.6299991607666,24.360000610351562,23.309999465942383,23.6299991607666,24.520000457763672,23.80126953125,0.04672827944159508,-0.1625879555940628,0.02816637232899666,-1.1454335451126099,1777925876001684286
1777925876191451302,275.4489440917969,184.66348266601562,81.5888671875,243.10496520996094,87.40780639648438,74.61874389648438,0.0,0.0,0.0,0.0,0.0,0.0,0.0,0.0,0.5286247134208679,0.0,0.0,0.0,24.520000457763672,23.6299991607666,24.280000686645508,23.389999389648438,23.549999237060547,24.440000534057617,23.80126953125,0.05639619752764702,-0.1594066619873047,0.028100013732910156,-1.1455297470092773,1777925876101765804
1777925876291309523,275.4489440917969,184.66348266601562,81.5888671875,243.10496520996094,87.40780639648438,74.61874389648438,0.0,0.0,0.0,0.0,0.0,0.0,0.0,0.0,0.4885774254798889,0.0,0.0,0.0,24.440000534057617,23.6299991607666,24.360000610351562,23.389999389648438,23.549999237060547,24.520000457763672,23.80126953125,0.05075657740235329,-0.16025741398334503,0.027559995651245117,-1.1457887887954712,1777925876201821360
1777925876391322967,275.4489440917969,184.66348266601562,81.5888671875,243.10496520996094,87.40780639648438,74.61874389648438,0.0,0.0,0.0,0.0,0.0,0.0,0.0,0.0,0.4885774254798889,0.0,0.0,0.0,24.520000457763672,23.6299991607666,24.280000686645508,23.309999465942383,23.6299991607666,24.440000534057617,23.80126953125,0.06284147500991821,-0.16130764782428741,0.028736192733049393,-1.1444497108459473,1777925876301880211
1777925876491312022,275.4489440917969,184.66348266601562,81.5888671875,243.10496520996094,87.40780639648438,74.61874389648438,0.0,0.0,0.0,0.0,0.0,0.0,0.0,0.0,0.48056793212890625,0.0,0.0,0.0,24.520000457763672,23.709999084472656,24.280000686645508,23.389999389648438,23.549999237060547,24.440000534057617,23.80126953125,0.05075657740235329,-0.1621289998292923,0.028285184875130653,-1.14529287815094,1777925876401954507
1777925876591319947,275.4489440917969,184.66357421875,81.5888671875,243.10496520996094,87.40780639648438,74.61874389648438,0.0,0.0,0.0,0.0,0.0,0.0,0.0,0.0,0.5045963525772095,0.0,0.0,0.0,24.520000457763672,23.709999084472656,24.360000610351562,23.309999465942383,23.6299991607666,24.520000457763672,23.80126953125,0.04914525896310806,-0.16115982830524445,0.025658607482910156,-1.1444199085235596,1777925876502016470
1777925876691317724,275.4489440917969,184.66357421875,81.5888671875,243.10496520996094,87.40780639648438,74.61874389648438,0.0,0.0,0.0,0.0,0.0,0.0,0.0,0.0,0.52061527967453,0.0,0.0,0.0,24.520000457763672,23.6299991607666,24.280000686645508,23.389999389648438,23.549999237060547,24.520000457763672,23.80126953125,0.05156223848462105,-0.16014614701271057,0.02822597697377205,-1.1467210054397583,1777925876602084488
1777925876791321871,275.4489440917969,184.66348266601562,81.5888671875,243.10496520996094,87.40780639648438,74.61874389648438,0.0,0.0,0.0,0.0,0.0,0.0,0.0,0.0,0.4885774254798889,0.0,0.0,0.0,24.600000381469727,23.6299991607666,24.360000610351562,23.389999389648438,23.549999237060547,24.440000534057617,23.80126953125,0.05156223475933075,-0.16249895095825195,0.02771536447107792,-1.1420801877975464,1777925876702187451
1777925876891332760,275.4489440917969,184.66348266601562,81.5888671875,243.10496520996094,87.40780639648438,74.61874389648438,0.0,0.0,0.0,0.0,0.0,0.0,0.0,0.0,0.52061527967453,0.0,0.0,0.0,24.520000457763672,23.709999084472656,24.280000686645508,23.389999389648438,23.549999237060547,24.520000457763672,23.80126953125,0.05156223848462105,-0.16187746822834015,0.0251924991607666,-1.1417642831802368,1777925876802265469
1777925876991320500,275.4489440917969,184.6633758544922,81.5888671875,243.10496520996094,87.40780639648438,74.61874389648438,0.0,0.0,0.0,0.0,0.0,0.0,0.0,0.0,0.48056793212890625,0.0,0.0,0.0,24.520000457763672,23.6299991607666,24.200000762939453,23.389999389648438,23.549999237060547,24.520000457763672,23.80126953125,0.050756581127643585,-0.16128578782081604,0.02422332763671875,-1.1447381973266602,1777925876902325839
1777925877091320777,275.4489440917969,184.66348266601562,81.5888671875,243.10496520996094,87.40780639648438,74.61874389648438,0.0,0.0,0.0,0.0,0.0,0.0,0.0,0.0,0.4885774254798889,0.0,0.0,0.0,24.520000457763672,23.6299991607666,24.280000686645508,23.389999389648438,23.6299991607666,24.440000534057617,23.80126953125,0.050756581127643585,-0.1620105803012848,0.028152067214250565,-1.1454041004180908,1777925877002387728
1777925877191321480,275.4489440917969,184.66348266601562,81.5888671875,243.10496520996094,87.40780639648438,74.61874389648438,0.0,0.0,0.0,0.0,0.0,0.0,0.0,0.0,0.4885774254798889,0.0,0.0,0.0,24.520000457763672,23.6299991607666,24.360000610351562,23.309999465942383,23.6299991607666,24.360000610351562,23.80126953125,0.05397921800613403,-0.1612929403781891,0.03216902166604996,-1.1440280675888062,1777925877102454153
1777925877291332535,275.4488220214844,184.6633758544922,81.5888671875,243.10496520996094,87.40780639648438,74.61874389648438,0.0,0.0,0.0,0.0,0.0,0.0,0.0,0.0,0.52061527967453,0.0,0.0,0.0,24.600000381469727,23.6299991607666,24.360000610351562,23.309999465942383,23.6299991607666,24.520000457763672,23.80126953125,0.05236789584159851,-0.16076762974262238,0.023653507232666016,-1.1421115398406982,1777925877202517857
1777925877391325201,275.4488220214844,184.6633758544922,81.5888671875,243.10496520996094,87.40780639648438,74.61874389648438,0.0,0.0,0.0,0.0,0.0,0.0,0.0,0.0,0.4965868890285492,0.0,0.0,0.0,24.520000457763672,23.6299991607666,24.280000686645508,23.389999389648438,23.6299991607666,24.440000534057617,23.80126953125,0.05397921800613403,-0.16192157566547394,0.0245412178337574,-1.1425260305404663,1777925877302581190
1777925877491320515,275.4489440917969,184.66357421875,81.5888671875,243.10496520996094,87.40780639648438,74.61874389648438,0.0,0.0,0.0,0.0,0.0,0.0,0.0,0.0,0.52061527967453,0.0,0.0,0.0,24.520000457763672,23.709999084472656,24.280000686645508,23.389999389648438,23.6299991607666,24.440000534057617,23.80126953125,0.05317355692386627,-0.1612710952758789,0.02673904038965702,-1.1423265933990479,1777925877402657227
1777925877591328718,275.4489440917969,184.66348266601562,81.5888671875,243.10496520996094,87.40780639648438,74.61874389648438,0.0,0.0,0.0,0.0,0.0,0.0,0.0,0.0,0.52061527967453,0.0,0.0,0.0,24.600000381469727,23.6299991607666,24.280000686645508,23.389999389648438,23.6299991607666,24.520000457763672,23.80126953125,0.054784879088401794,-0.16187746822834015,0.031666357070207596,-1.1429623365402222,1777925877502726152
1777925877691328921,275.4489440917969,184.6633758544922,81.5888671875,243.10496520996094,87.40780639648438,74.61874389648438,0.0,0.0,0.0,0.0,0.0,0.0,0.0,0.0,0.5045963525772095,0.0,0.0,0.0,24.520000457763672,23.6299991607666,24.200000762939453,23.309999465942383,23.6299991607666,24.440000534057617,23.80126953125,0.049950920045375824,-0.16264677047729492,0.025207597762346268,-1.1435917615890503,1777925877602803504
