timestamp_ns,joint_1_pos,joint_2_pos,joint_3_pos,joint_4_pos,joint_5_pos,joint_6_pos,joint_1_vel,joint_2_vel,joint_3_vel,joint_4_vel,joint_5_vel,joint_6_vel,joint_1_torque,joint_2_torque,joint_3_torque,joint_4_torque,joint_5_torque,joint_6_torque,joint_1_current,joint_2_current,joint_3_current,joint_4_current,joint_5_current,joint_6_current,joint_1_temp,joint_2_temp,joint_3_temp,joint_4_temp,joint_5_temp,joint_6_temp,bus_voltage,bus_current,accel_x,accel_y,accel_z,control_enabled,retract_state,robot_type,torque_sensors_available,timestamp_ns
1777792857581071726,23.76400375366211,0.0,-0.1510377675294876,-0.040645599365234375,-1.1408395767211914,29.59000015258789,0.0,2.3693572021746376e-38,2.350988981904268e-38,9.219142596792972e-41,0.0,0.0,274.9136962890625,174.95323181152344,78.55330657958984,242.5046844482422,84.15071105957031,74.73792266845703,-1.401298464324817e-45,-0.22321423888206482,-0.009765625,-0.3246753215789795,-1.401298464324817e-45,-1.401298464324817e-45,-18.980972290039062,0.0,0.0,0.0,0.0,0.0,4.629733562469482,0.07697085291147232,-0.4767664670944214,-16.764432907104492,8.646549224853516,false,237,91,true,1777792857104906472
1777792857681074403,23.76400375366211,0.0,-0.1510377675294876,-0.040645599365234375,-1.1408395767211914,29.59000015258789,0.0,2.3693572021746376e-38,2.350988981904268e-38,9.219142596792972e-41,0.0,0.0,274.9136962890625,174.95323181152344,78.55330657958984,242.5046844482422,84.15071105957031,74.73792266845703,-1.401298464324817e-45,-0.22321423888206482,-0.009765625,-0.3246753215789795,-1.401298464324817e-45,-1.401298464324817e-45,-18.980972290039062,0.0,0.0,0.0,0.0,0.0,4.629733562469482,0.07697085291147232,-0.4767664670944214,-16.764432907104492,8.646549224853516,false,237,91,true,1777792857104906472
1777792857781079044,23.76400375366211,0.0,-0.1510377675294876,-0.040645599365234375,-1.1408395767211914,29.59000015258789,0.0,2.3693572021746376e-38,2.350988981904268e-38,9.219142596792972e-41,0.0,0.0,0.0,2.3693572021746376e-38,2.350988981904268e-38,9.219142596792972e-41,0.0,0.0,-1.401298464324817e-45,-0.22321423888206482,-0.009765625,-0.3246753215789795,-1.401298464324817e-45,-1.401298464324817e-45,74.74019622802734,0.0,0.0,0.0,0.0,0.0,274.9136962890625,174.95361328125,78.55330657958984,242.5046844482422,84.15071105957031,false,70,216,true,1777792857104906472
1777792857881090555,23.76400375366211,0.0,-0.1510377675294876,-0.040645599365234375,-1.1408395767211914,29.59000015258789,0.0,2.3693572021746376e-38,2.350988981904268e-38,9.219142596792972e-41,0.0,0.0,0.0,2.3693572021746376e-38,2.350988981904268e-38,9.219142596792972e-41,0.0,0.0,-1.401298464324817e-45,-0.22321423888206482,-0.009765625,-0.3246753215789795,-1.401298464324817e-45,-1.401298464324817e-45,74.74019622802734,0.0,0.0,0.0,0.0,0.0,274.9136962890625,174.95361328125,78.55330657958984,242.5046844482422,84.15071105957031,false,70,216,true,1777792857104906472
1777792857981080751,23.76400375366211,0.0,-0.1510377675294876,-0.040645599365234375,-1.1408395767211914,29.59000015258789,0.0,2.3693572021746376e-38,2.350988981904268e-38,9.219142596792972e-41,0.0,0.0,0.0,2.3693572021746376e-38,2.350988981904268e-38,9.219142596792972e-41,0.0,0.0,-1.401298464324817e-45,-0.22321423888206482,-0.009765625,-0.3246753215789795,-1.401298464324817e-45,-1.401298464324817e-45,74.74019622802734,0.0,0.0,0.0,0.0,0.0,274.9136962890625,174.95361328125,78.55330657958984,242.5046844482422,84.15071105957031,false,70,216,true,1777792857104906472
1777792858081092928,23.76400375366211,0.0,-0.1510377675294876,-0.040645599365234375,-1.1408395767211914,29.59000015258789,4.616183280944824,0.10132826119661331,-0.5546106696128845,-16.769084930419922,8.68697738647461,-18.98827362060547,-0.0024169799871742725,0.0,-0.12165465950965881,-0.09023391455411911,0.004833959974348545,-0.02416979894042015,23.76400375366211,0.0,-0.15062172710895538,-0.044197238981723785,-1.1397814750671387,29.59000015258789,74.74019622802734,0.0,0.0,0.0,0.0,0.0,274.9136962890625,174.95361328125,78.55330657958984,242.5046844482422,84.15071105957031,false,70,216,true,1777792857104906472
1777792858181077513,23.76400375366211,0.0,-0.1510377675294876,-0.040645599365234375,-1.1408395767211914,29.59000015258789,4.616183280944824,0.10132826119661331,-0.5546106696128845,-16.769084930419922,8.68697738647461,-18.98827362060547,-0.0024169799871742725,0.0,-0.12165465950965881,-0.09023391455411911,0.004833959974348545,-0.02416979894042015,23.76400375366211,0.0,-0.15062172710895538,-0.044197238981723785,-1.1397814750671387,29.59000015258789,0.0,0.0,0.0,0.0,0.0,0.0,0.0,2.3693572021746376e-38,2.350988981904268e-38,9.219142596792972e-41,0.0,false,0,51,true,1777792857104906472
1777792858281094154,-1.401298464324817e-45,-1.401298464324817e-45,-0.009765625,-0.3246753215789795,-1.401298464324817e-45,-1.401298464324817e-45,4.66097354888916,0.09988047182559967,-0.6930569410324097,-16.762531280517578,8.749019622802734,-18.98883056640625,-0.0024169799871742725,0.0,-0.12165465950965881,-0.09023391455411911,0.004833959974348545,-0.02416979894042015,23.76400375366211,0.0,-0.15062172710895538,-0.044197238981723785,-1.1397814750671387,29.59000015258789,0.0,0.0,0.0,0.0,0.0,0.0,0.0,2.3693572021746376e-38,2.350988981904268e-38,9.219142596792972e-41,0.0,false,0,51,true,1777792858227743983
1777792858381076424,-1.401298464324817e-45,-1.401298464324817e-45,-0.009765625,-0.3246753215789795,-1.401298464324817e-45,-1.401298464324817e-45,4.66097354888916,0.09988047182559967,-0.6930569410324097,-16.762531280517578,8.749019622802734,-18.98883056640625,-0.0008056599763222039,-0.0008056599763222039,-0.12568295001983643,-0.09023391455411911,0.00966791994869709,-0.022558478638529778,0.0,2.3693572021746376e-38,2.350988981904268e-38,9.219142596792972e-41,0.0,0.0,0.0,0.0,0.0,0.0,0.0,0.0,0.0,2.3693572021746376e-38,2.350988981904268e-38,9.219142596792972e-41,0.0,false,0,51,true,1777792858227743983
1777792858481085046,-1.401298464324817e-45,-1.401298464324817e-45,-0.009765625,-0.3246753215789795,-1.401298464324817e-45,-1.401298464324817e-45,4.66097354888916,0.09988047182559967,-0.6930569410324097,-16.762531280517578,8.749019622802734,-18.98883056640625,-0.0008056599763222039,-0.0008056599763222039,-0.12568295001983643,-0.09023391455411911,0.00966791994869709,-0.022558478638529778,0.0,2.3693572021746376e-38,2.350988981904268e-38,9.219142596792972e-41,0.0,0.0,-1.401298464324817e-45,0.0,0.0,0.0,0.0,0.0,-1.401298464324817e-45,-1.401298464324817e-45,-0.009765625,-0.3246753215789795,-1.401298464324817e-45,true,0,198,true,1777792858227743983
1777792858581084872,0.0,2.3693572021746376e-38,2.350988981904268e-38,9.219142596792972e-41,0.0,0.0,-1.401298464324817e-45,-1.401298464324817e-45,-0.009765625,-0.3246753215789795,-1.401298464324817e-45,-1.401298464324817e-45,-0.0008056599763222039,-0.0008056599763222039,-0.12568295001983643,-0.09023391455411911,0.00966791994869709,-0.022558478638529778,0.0,2.3693572021746376e-38,2.350988981904268e-38,9.219142596792972e-41,0.0,0.0,-1.401298464324817e-45,0.0,0.0,0.0,0.0,0.0,-1.401298464324817e-45,-1.401298464324817e-45,-0.009765625,-0.3246753215789795,-1.401298464324817e-45,true,0,198,true,1777792858527931812
1777792858681087068,0.0,2.3693572021746376e-38,2.350988981904268e-38,9.219142596792972e-41,0.0,0.0,-1.401298464324817e-45,-1.401298464324817e-45,-0.009765625,-0.3246753215789795,-1.401298464324817e-45,-1.401298464324817e-45,-0.0008056599763222039,-0.0008056599763222039,-0.12568295001983643,-0.09023391455411911,0.00966791994869709,-0.022558478638529778,0.0,2.3693572021746376e-38,2.350988981904268e-38,9.219142596792972e-41,0.0,0.0,-1.401298464324817e-45,0.0,0.0,0.0,0.0,0.0,-1.401298464324817e-45,-1.401298464324817e-45,-0.009765625,-0.3246753215789795,-1.401298464324817e-45,true,0,198,true,1777792858527931812
1777792858781110375,0.0,2.3693572021746376e-38,2.350988981904268e-38,9.219142596792972e-41,0.0,0.0,-1.401298464324817e-45,-1.401298464324817e-45,-0.009765625,-0.3246753215789795,-1.401298464324817e-45,-1.401298464324817e-45,4.610589981079102,0.12938818335533142,-0.5772645473480225,-16.76593780517578,8.726728439331055,-18.98105239868164,-0.0016113199526444077,0.0,-0.1240716353058815,-0.0926508978009224,0.006445279810577631,-0.021752819418907166,-1.401298464324817e-45,0.0,0.0,0.0,0.0,0.0,-1.401298464324817e-45,-1.401298464324817e-45,-0.009765625,-0.3246753215789795,-1.401298464324817e-45,true,0,198,true,1777792858527931812
1777792858881100886,0.0,2.3693572021746376e-38,2.350988981904268e-38,9.219142596792972e-41,0.0,0.0,-1.401298464324817e-45,-1.401298464324817e-45,-0.009765625,-0.3246753215789795,-1.401298464324817e-45,-1.401298464324817e-45,4.610589981079102,0.12938818335533142,-0.5772645473480225,-16.76593780517578,8.726728439331055,-18.98105239868164,-0.0016113199526444077,0.0,-0.1240716353058815,-0.0926508978009224,0.006445279810577631,-0.021752819418907166,29.59000015258789,28.6299991607666,34.75,34.90999984741211,32.0099983215332,35.959999084472656,23.763017654418945,0.0,-0.14947175979614258,-0.042319297790527344,-1.140884518623352,false,5,254,true,1777792858527931812
1777792858981098879,274.9136962890625,174.953125,78.55330657958984,242.5046844482422,84.15071105957031,74.74189758300781,-1.401298464324817e-45,-1.401298464324817e-45,-0.009765625,-0.3246753215789795,-1.401298464324817e-45,-1.401298464324817e-45,4.610589981079102,0.12938818335533142,-0.5772645473480225,-16.76593780517578,8.726728439331055,-18.98105239868164,-0.0016113199526444077,0.0,-0.1240716353058815,-0.0926508978009224,0.006445279810577631,-0.021752819418907166,29.59000015258789,28.6299991607666,34.75,34.90999984741211,32.0099983215332,35.959999084472656,23.763017654418945,0.0,-0.14947175979614258,-0.042319297790527344,-1.140884518623352,false,5,254,true,1777792858839642023
1777792859081100019,274.9136962890625,174.953125,78.55330657958984,242.5046844482422,84.15071105957031,74.74189758300781,-1.401298464324817e-45,-1.401298464324817e-45,-0.009765625,-0.3246753215789795,-1.401298464324817e-45,-1.401298464324817e-45,4.66393518447876,0.13046187162399292,-0.5996553897857666,-16.761301040649414,8.726682662963867,-18.98723793029785,0.0,0.0,-0.12971125543117523,-0.09506787359714508,0.005639619659632444,-0.02416979894042015,29.59000015258789,28.6299991607666,34.75,34.90999984741211,32.0099983215332,35.959999084472656,23.763017654418945,0.0,-0.14947175979614258,-0.042319297790527344,-1.140884518623352,false,5,254,true,1777792858839642023
1777792859181100104,274.9136962890625,174.953125,78.55330657958984,242.5046844482422,84.15071105957031,74.74189758300781,-1.401298464324817e-45,-1.401298464324817e-45,-0.009765625,-0.3246753215789795,-1.401298464324817e-45,-1.401298464324817e-45,4.66393518447876,0.13046187162399292,-0.5996553897857666,-16.761301040649414,8.726682662963867,-18.98723793029785,0.0,0.0,-0.12971125543117523,-0.09506787359714508,0.005639619659632444,-0.02416979894042015,29.59000015258789,28.790000915527344,34.83000183105469,34.90999984741211,31.93000030517578,35.959999084472656,23.763017654418945,0.0,-0.15146096050739288,-0.041620731353759766,-1.1403095722198486,false,5,254,true,1777792858839642023
1777792859281093763,0.0,2.3693572021746376e-38,2.350988981904268e-38,9.219142596792972e-41,0.0,0.0,-1.401298464324817e-45,-1.401298464324817e-45,-0.009765625,-0.3246753215789795,-1.401298464324817e-45,-1.401298464324817e-45,4.66393518447876,0.13046187162399292,-0.5996553897857666,-16.761301040649414,8.726682662963867,-18.98723793029785,0.0,0.0,-0.12971125543117523,-0.09506787359714508,0.005639619659632444,-0.02416979894042015,29.59000015258789,28.790000915527344,34.83000183105469,34.90999984741211,31.93000030517578,35.959999084472656,23.763017654418945,0.0,-0.15146096050739288,-0.041620731353759766,-1.1403095722198486,false,5,254,true,1777792859173022584
1777792859381131552,0.0,2.3693572021746376e-38,2.350988981904268e-38,9.219142596792972e-41,0.0,0.0,-1.401298464324817e-45,-1.401298464324817e-45,-0.009765625,-0.3246753215789795,-1.401298464324817e-45,-1.401298464324817e-45,4.646026611328125,0.13446107506752014,-0.621962308883667,-16.75933837890625,8.710844039916992,-18.976116180419922,-0.005639619659632444,0.0,-0.12326597422361374,-0.09184523671865463,0.007250939961522818,-0.021752819418907166,29.59000015258789,28.790000915527344,34.83000183105469,34.90999984741211,31.93000030517578,35.959999084472656,23.763017654418945,0.0,-0.15146096050739288,-0.041620731353759766,-1.1403095722198486,false,5,254,true,1777792859173022584
1777792859481120933,0.0,2.3693572021746376e-38,2.350988981904268e-38,9.219142596792972e-41,0.0,0.0,-1.401298464324817e-45,-1.401298464324817e-45,-0.009765625,-0.3246753215789795,-1.401298464324817e-45,-1.401298464324817e-45,4.646026611328125,0.13446107506752014,-0.621962308883667,-16.75933837890625,8.710844039916992,-18.976116180419922,-0.005639619659632444,0.0,-0.12326597422361374,-0.09184523671865463,0.007250939961522818,-0.021752819418907166,29.510000228881836,28.709999084472656,34.66999816894531,34.90999984741211,32.0099983215332,35.959999084472656,23.763017654418945,0.0,-0.1495150625705719,-0.04255135729908943,-1.1420197486877441,false,5,254,true,1777792859173022584
1777792859581093666,0.0,2.3693572021746376e-38,2.350988981904268e-38,9.219142596792972e-41,0.0,0.0,-1.401298464324817e-45,-1.401298464324817e-45,-0.009765625,-0.3246753215789795,-1.401298464324817e-45,-1.401298464324817e-45,4.646026611328125,0.13446107506752014,-0.621962308883667,-16.75933837890625,8.710844039916992,-18.976116180419922,-0.005639619659632444,0.0,-0.12326597422361374,-0.09184523671865463,0.007250939961522818,-0.021752819418907166,29.510000228881836,28.709999084472656,34.66999816894531,34.90999984741211,32.0099983215332,35.959999084472656,23.763017654418945,0.0,-0.1495150625705719,-0.04255135729908943,-1.1420197486877441,false,5,254,true,1777792859173022584
1777792859681110288,0.0,2.3693572021746376e-38,2.350988981904268e-38,9.219142596792972e-41,0.0,0.0,274.9136962890625,174.953125,78.55330657958984,242.5046844482422,84.15071105957031,74.7420425415039,-1.401298464324817e-45,-1.401298464324817e-45,-0.009765625,-0.3246753215789795,-1.401298464324817e-45,-1.401298464324817e-45,0.0,-0.0008056599763222039,-0.12729427218437195,-0.09506787359714508,0.004833959974348545,-0.02416979894042015,29.510000228881836,28.709999084472656,34.66999816894531,34.90999984741211,32.0099983215332,35.959999084472656,23.763017654418945,0.0,-0.1495150625705719,-0.04255135729908943,-1.1420197486877441,false,5,254,true,1777792859173022584
1777792859781113559,0.0,2.3693572021746376e-38,2.350988981904268e-38,9.219142596792972e-41,0.0,0.0,274.9136962890625,174.953125,78.55330657958984,242.5046844482422,84.15071105957031,74.7420425415039,-1.401298464324817e-45,-1.401298464324817e-45,-0.009765625,-0.3246753215789795,-1.401298464324817e-45,-1.401298464324817e-45,0.0,-0.0008056599763222039,-0.12729427218437195,-0.09506787359714508,0.004833959974348545,-0.02416979894042015,29.510000228881836,28.709999084472656,34.66999816894531,34.90999984741211,32.0099983215332,35.959999084472656,23.763017654418945,0.0,-0.1495150625705719,-0.04255135729908943,-1.1420197486877441,false,5,254,true,1777792859173022584
1777792859881100884,0.0,2.3693572021746376e-38,2.350988981904268e-38,9.219142596792972e-41,0.0,0.0,274.9136962890625,174.953125,78.55330657958984,242.5046844482422,84.15071105957031,74.7420425415039,-1.401298464324817e-45,-1.401298464324817e-45,-0.009765625,-0.3246753215789795,-1.401298464324817e-45,-1.401298464324817e-45,0.0,-0.0008056599763222039,-0.12729427218437195,-0.09506787359714508,0.004833959974348545,-0.02416979894042015,29.59000015258789,28.709999084472656,34.66999816894531,34.90999984741211,32.0099983215332,35.880001068115234,23.763017654418945,0.0,-0.15081682801246643,-0.04256685450673103,-1.139564871788025,false,5,254,true,1777792859173022584
1777792859981096840,274.9136962890625,174.953125,78.55330657958984,242.5046844482422,84.15071105957031,74.7421875,-1.401298464324817e-45,-1.401298464324817e-45,-0.009765625,-0.3246753215789795,-1.401298464324817e-45,-1.401298464324817e-45,-1.401298464324817e-45,-1.401298464324817e-45,-0.009765625,-0.3246753215789795,-1.401298464324817e-45,-1.401298464324817e-45,0.0,-0.0008056599763222039,-0.12729427218437195,-0.09506787359714508,0.004833959974348545,-0.02416979894042015,29.59000015258789,28.709999084472656,34.66999816894531,34.90999984741211,32.0099983215332,35.880001068115234,23.763017654418945,0.0,-0.15081682801246643,-0.04256685450673103,-1.139564871788025,false,5,254,true,1777792859845926148
1777792860081109332,274.9136962890625,174.953125,78.55330657958984,242.5046844482422,84.15071105957031,74.7421875,-1.401298464324817e-45,-1.401298464324817e-45,-0.009765625,-0.3246753215789795,-1.401298464324817e-45,-1.401298464324817e-45,-1.401298464324817e-45,-1.401298464324817e-45,-0.009765625,-0.3246753215789795,-1.401298464324817e-45,-1.401298464324817e-45,0.0,-0.0008056599763222039,-0.12729427218437195,-0.09506787359714508,0.004833959974348545,-0.02416979894042015,29.59000015258789,28.709999084472656,34.66999816894531,34.90999984741211,32.0099983215332,35.880001068115234,23.763017654418945,0.0,-0.15081682801246643,-0.04256685450673103,-1.139564871788025,false,5,254,true,1777792859845926148
1777792860181110806,274.9136962890625,174.953125,78.55330657958984,242.5046844482422,84.15071105957031,74.7421875,-1.401298464324817e-45,-1.401298464324817e-45,-0.009765625,-0.3246753215789795,-1.401298464324817e-45,-1.401298464324817e-45,4.635313034057617,0.1286354959011078,-0.671826958656311,-16.766550064086914,8.726004600524902,-18.976940155029297,0.0,-0.0008056599763222039,-0.12729427218437195,-0.09506787359714508,0.004833959974348545,-0.02416979894042015,-0.02416979894042015,0.0,0.0,0.0,0.0,0.0,-0.0032226399052888155,-0.0008056599763222039,-0.12165465950965881,-0.09426221996545792,0.006445279810577631,true,0,85,true,1777792859845926148
1777792860281116539,274.9136962890625,174.953125,78.55330657958984,242.5046844482422,84.15071105957031,74.7421875,-1.401298464324817e-45,-1.401298464324817e-45,-0.009765625,-0.3246753215789795,-1.401298464324817e-45,-1.401298464324817e-45,4.635313034057617,0.1286354959011078,-0.671826958656311,-16.766550064086914,8.726004600524902,-18.976940155029297,0.0,-0.0008056599763222039,-0.12729427218437195,-0.09506787359714508,0.004833959974348545,-0.02416979894042015,-0.02416979894042015,0.0,0.0,0.0,0.0,0.0,-0.0032226399052888155,-0.0008056599763222039,-0.12165465950965881,-0.09426221996545792,0.006445279810577631,true,0,85,true,1777792859845926148
1777792860381116272,0.0,2.3693572021746376e-38,2.350988981904268e-38,9.219142596792972e-41,0.0,0.0,-1.401298464324817e-45,-1.401298464324817e-45,-0.009765625,-0.3246753215789795,-1.401298464324817e-45,-1.401298464324817e-45,4.635313034057617,0.1286354959011078,-0.671826958656311,-16.766550064086914,8.726004600524902,-18.976940155029297,0.0,-0.0008056599763222039,-0.12729427218437195,-0.09506787359714508,0.004833959974348545,-0.02416979894042015,-0.02416979894042015,0.0,0.0,0.0,0.0,0.0,-0.0032226399052888155,-0.0008056599763222039,-0.12165465950965881,-0.09426221996545792,0.006445279810577631,true,0,85,true,1777792860193063447
1777792860481123283,0.0,2.3693572021746376e-38,2.350988981904268e-38,9.219142596792972e-41,0.0,0.0,-1.401298464324817e-45,-1.401298464324817e-45,-0.009765625,-0.3246753215789795,-1.401298464324817e-45,-1.401298464324817e-45,4.635313034057617,0.1286354959011078,-0.671826958656311,-16.766550064086914,8.726004600524902,-18.976940155029297,4.62375020980835,0.10725679248571396,-0.6561238169670105,-16.777019500732422,8.72411823272705,-18.988216400146484,-0.02416979894042015,0.0,0.0,0.0,0.0,0.0,-0.0032226399052888155,-0.0008056599763222039,-0.12165465950965881,-0.09426221996545792,0.006445279810577631,true,0,85,true,1777792860193063447
1777792860581125738,0.0,2.3693572021746376e-38,2.350988981904268e-38,9.219142596792972e-41,0.0,0.0,-1.401298464324817e-45,-1.401298464324817e-45,-0.009765625,-0.3246753215789795,-1.401298464324817e-45,-1.401298464324817e-45,4.635313034057617,0.1286354959011078,-0.671826958656311,-16.766550064086914,8.726004600524902,-18.976940155029297,4.62375020980835,0.10725679248571396,-0.6561238169670105,-16.777019500732422,8.72411823272705,-18.988216400146484,-0.02416979894042015,0.0,0.0,0.0,0.0,0.0,-0.0024169799871742725,0.0,-0.13132257759571075,-0.09023391455411911,0.006445279810577631,false,5,254,true,1777792860193063447
1777792860681133694,274.9136962890625,174.953125,78.55330657958984,242.5046844482422,84.15071105957031,74.7421875,-1.401298464324817e-45,-1.401298464324817e-45,-0.009765625,-0.3246753215789795,-1.401298464324817e-45,-1.401298464324817e-45,4.635313034057617,0.1286354959011078,-0.671826958656311,-16.766550064086914,8.726004600524902,-18.976940155029297,4.62375020980835,0.10725679248571396,-0.6561238169670105,-16.777019500732422,8.72411823272705,-18.988216400146484,-0.02416979894042015,0.0,0.0,0.0,0.0,0.0,-0.0024169799871742725,0.0,-0.13132257759571075,-0.09023391455411911,0.006445279810577631,false,5,254,true,1777792860544629665
1777792860781129168,274.9136962890625,174.953125,78.55330657958984,242.5046844482422,84.15071105957031,74.7421875,-1.401298464324817e-45,-1.401298464324817e-45,-0.009765625,-0.3246753215789795,-1.401298464324817e-45,-1.401298464324817e-45,4.635313034057617,0.1286354959011078,-0.671826958656311,-16.766550064086914,8.726004600524902,-18.976940155029297,4.62375020980835,0.10725679248571396,-0.6561238169670105,-16.777019500732422,8.72411823272705,-18.988216400146484,-0.02416979894042015,0.0,0.0,0.0,0.0,0.0,-0.0024169799871742725,0.0,-0.13132257759571075,-0.09023391455411911,0.006445279810577631,false,5,254,true,1777792860544629665
1777792860881121216,274.9136962890625,174.953125,78.55330657958984,242.5046844482422,84.15071105957031,74.7421875,-1.401298464324817e-45,-1.401298464324817e-45,-0.009765625,-0.3246753215789795,-1.401298464324817e-45,-1.401298464324817e-45,4.639269828796387,0.11193998157978058,-0.5926053524017334,-16.747840881347656,8.699131965637207,-18.98609733581543,4.62375020980835,0.10725679248571396,-0.6561238169670105,-16.777019500732422,8.72411823272705,-18.988216400146484,-0.02416979894042015,0.0,0.0,0.0,0.0,0.0,-0.0024169799871742725,0.0,-0.13132257759571075,-0.09023391455411911,0.006445279810577631,false,5,254,true,1777792860544629665
1777792860981129264,274.9136962890625,174.953125,78.55330657958984,242.5046844482422,84.15071105957031,74.7421875,-1.401298464324817e-45,-1.401298464324817e-45,-0.009765625,-0.3246753215789795,-1.401298464324817e-45,-1.401298464324817e-45,4.639269828796387,0.11193998157978058,-0.5926053524017334,-16.747840881347656,8.699131965637207,-18.98609733581543,4.62375020980835,0.10725679248571396,-0.6561238169670105,-16.777019500732422,8.72411823272705,-18.988216400146484,-0.020947160199284554,0.0,0.0,0.0,0.0,0.0,-0.0016113199526444077,0.0,-0.12165465950965881,-0.08781693875789642,0.004833959974348545,false,5,254,true,1777792860544629665
1777792861081137367,274.9136962890625,174.953125,78.55330657958984,242.5046844482422,84.15071105957031,74.74232482910156,-1.401298464324817e-45,-1.401298464324817e-45,-0.009765625,-0.3246753215789795,-1.401298464324817e-45,-1.401298464324817e-45,4.639269828796387,0.11193998157978058,-0.5926053524017334,-16.747840881347656,8.699131965637207,-18.98609733581543,4.62375020980835,0.10725679248571396,-0.6561238169670105,-16.777019500732422,8.72411823272705,-18.988216400146484,-0.020947160199284554,0.0,0.0,0.0,0.0,0.0,-0.0016113199526444077,0.0,-0.12165465950965881,-0.08781693875789642,0.004833959974348545,false,5,254,true,1777792860929068614
1777792861181122174,274.9136962890625,174.953125,78.55330657958984,242.5046844482422,84.15071105957031,74.74232482910156,-1.401298464324817e-45,-1.401298464324817e-45,-0.009765625,-0.3246753215789795,-1.401298464324817e-45,-1.401298464324817e-45,4.639269828796387,0.11193998157978058,-0.5926053524017334,-16.747840881347656,8.699131965637207,-18.98609733581543,4.62375020980835,0.10725679248571396,-0.6561238169670105,-16.777019500732422,8.72411823272705,-18.988216400146484,-0.020947160199284554,0.0,0.0,0.0,0.0,0.0,-0.0016113199526444077,0.0,-0.12165465950965881,-0.08781693875789642,0.004833959974348545,false,5,254,true,1777792860929068614
1777792861281111870,274.9136962890625,174.953125,78.55330657958984,242.5046844482422,84.15071105957031,74.74232482910156,-1.401298464324817e-45,-1.401298464324817e-45,-0.009765625,-0.3246753215789795,-1.401298464324817e-45,-1.401298464324817e-45,4.627322196960449,0.10694621503353119,-0.6228039860725403,-16.751806259155273,8.70433521270752,-18.974853515625,0.0,0.0,-0.12165465950965881,-0.09103957563638687,0.007250939961522818,-0.02336413972079754,29.59000015258789,28.709999084472656,34.66999816894531,34.90999984741211,32.0099983215332,35.959999084472656,23.763017654418945,0.0,-0.1498425006866455,-0.04203597456216812,-1.139501690864563,false,5,254,true,1777792860929068614
1777792861381133270,274.9136962890625,174.953125,78.55330657958984,242.5046844482422,84.15071105957031,74.74232482910156,-1.401298464324817e-45,-1.401298464324817e-45,-0.009765625,-0.3246753215789795,-1.401298464324817e-45,-1.401298464324817e-45,4.627322196960449,0.10694621503353119,-0.6228039860725403,-16.751806259155273,8.70433521270752,-18.974853515625,0.0,0.0,-0.12165465950965881,-0.09103957563638687,0.007250939961522818,-0.02336413972079754,29.59000015258789,28.709999084472656,34.66999816894531,34.90999984741211,32.0099983215332,35.959999084472656,23.763017654418945,0.0,-0.1498425006866455,-0.04203597456216812,-1.139501690864563,false,5,254,true,1777792860929068614
1777792861481135966,274.9136962890625,174.953125,78.55330657958984,242.5046844482422,84.15071105957031,74.74232482910156,-1.401298464324817e-45,-1.401298464324817e-45,-0.009765625,-0.3246753215789795,-1.401298464324817e-45,-1.401298464324817e-45,4.627322196960449,0.10694621503353119,-0.6228039860725403,-16.751806259155273,8.70433521270752,-18.974853515625,0.0,0.0,-0.12165465950965881,-0.09103957563638687,0.007250939961522818,-0.02336413972079754,29.59000015258789,28.709999084472656,34.66999816894531,34.90999984741211,32.0099983215332,35.959999084472656,23.763017654418945,0.0,-0.1498425006866455,-0.04203597456216812,-1.139501690864563,false,5,254,true,1777792861283260357
1777792861581121199,274.9136962890625,174.953125,78.55330657958984,242.5046844482422,84.15071105957031,74.74232482910156,-1.401298464324817e-45,-1.401298464324817e-45,-0.009765625,-0.3246753215789795,-1.401298464324817e-45,-1.401298464324817e-45,-1.401298464324817e-45,-1.401298464324817e-45,-0.009765625,-0.3246753215789795,-1.401298464324817e-45,-1.401298464324817e-45,0.0,0.0,-0.12165465950965881,-0.09103957563638687,0.007250939961522818,-0.02336413972079754,29.59000015258789,28.709999084472656,34.66999816894531,34.90999984741211,32.0099983215332,35.959999084472656,23.763017654418945,0.0,-0.1498425006866455,-0.04203597456216812,-1.139501690864563,false,5,254,true,1777792861283260357
1777792861681129247,274.9136962890625,174.953125,78.55330657958984,242.5046844482422,84.15071105957031,74.74232482910156,-1.401298464324817e-45,-1.401298464324817e-45,-0.009765625,-0.3246753215789795,-1.401298464324817e-45,-1.401298464324817e-45,-1.401298464324817e-45,-1.401298464324817e-45,-0.009765625,-0.3246753215789795,-1.401298464324817e-45,-1.401298464324817e-45,0.0,0.0,-0.12165465950965881,-0.09103957563638687,0.007250939961522818,-0.02336413972079754,-18.96888542175293,0.0,0.0,0.0,0.0,0.0,4.6346049308776855,0.09200622886419296,-0.6148483753204346,-16.76780128479004,8.717251777648926,true,0,245,true,1777792861283260357
1777792861781131129,23.763017654418945,0.0,-0.15057046711444855,-0.04336754232645035,-1.1412338018417358,29.59000015258789,-1.401298464324817e-45,-1.401298464324817e-45,-0.009765625,-0.3246753215789795,-1.401298464324817e-45,-1.401298464324817e-45,-1.401298464324817e-45,-1.401298464324817e-45,-0.009765625,-0.3246753215789795,-1.401298464324817e-45,-1.401298464324817e-45,0.0,0.0,-0.12165465950965881,-0.09103957563638687,0.007250939961522818,-0.02336413972079754,-18.96888542175293,0.0,0.0,0.0,0.0,0.0,4.6346049308776855,0.09200622886419296,-0.6148483753204346,-16.76780128479004,8.717251777648926,true,0,245,true,1777792861625065717
1777792861881135232,23.763017654418945,0.0,-0.15057046711444855,-0.04336754232645035,-1.1412338018417358,29.59000015258789,-1.401298464324817e-45,-1.401298464324817e-45,-0.009765625,-0.3246753215789795,-1.401298464324817e-45,-1.401298464324817e-45,-1.401298464324817e-45,-1.401298464324817e-45,-0.009765625,-0.3246753215789795,-1.401298464324817e-45,-1.401298464324817e-45,0.0,0.0,-0.12165465950965881,-0.09103957563638687,0.007250939961522818,-0.02336413972079754,-18.96888542175293,0.0,0.0,0.0,0.0,0.0,4.6346049308776855,0.09200622886419296,-0.6148483753204346,-16.76780128479004,8.717251777648926,true,0,245,true,1777792861625065717
1777792861981144595,23.763017654418945,0.0,-0.15057046711444855,-0.04336754232645035,-1.1412338018417358,29.59000015258789,-1.401298464324817e-45,-1.401298464324817e-45,-0.009765625,-0.3246753215789795,-1.401298464324817e-45,-1.401298464324817e-45,-1.401298464324817e-45,-1.401298464324817e-45,-0.009765625,-0.3246753215789795,-1.401298464324817e-45,-1.401298464324817e-45,0.0,0.0,-0.12165465950965881,-0.09103957563638687,0.007250939961522818,-0.02336413972079754,-18.96888542175293,0.0,0.0,0.0,0.0,0.0,4.6346049308776855,0.09200622886419296,-0.6148483753204346,-16.76780128479004,8.717251777648926,true,0,245,true,1777792861625065717
1777792862081151032,23.763017654418945,0.0,-0.15057046711444855,-0.04336754232645035,-1.1412338018417358,29.59000015258789,-1.401298464324817e-45,-1.401298464324817e-45,-0.009765625,-0.3246753215789795,-1.401298464324817e-45,-1.401298464324817e-45,-1.401298464324817e-45,-1.401298464324817e-45,-0.009765625,-0.3246753215789795,-1.401298464324817e-45,-1.401298464324817e-45,0.0,0.0,-0.12165465950965881,-0.09103957563638687,0.007250939961522818,-0.02336413972079754,-18.96888542175293,0.0,0.0,0.0,0.0,0.0,4.6346049308776855,0.09200622886419296,-0.6148483753204346,-16.76780128479004,8.717251777648926,true,0,245,true,1777792861625065717
1777792862181155358,-1.401298464324817e-45,-1.401298464324817e-45,-0.009765625,-0.3246753215789795,-1.401298464324817e-45,-1.401298464324817e-45,4.641655921936035,0.08826851844787598,-0.6052989959716797,-16.7673282623291,8.696833610534668,-18.98586082458496,-1.401298464324817e-45,-1.401298464324817e-45,-0.009765625,-0.3246753215789795,-1.401298464324817e-45,-1.401298464324817e-45,0.0,0.0,-0.12165465950965881,-0.09103957563638687,0.007250939961522818,-0.02336413972079754,-18.96888542175293,0.0,0.0,0.0,0.0,0.0,4.6346049308776855,0.09200622886419296,-0.6148483753204346,-16.76780128479004,8.717251777648926,false,5,254,true,1777792862117555142
1777792862281141257,-1.401298464324817e-45,-1.401298464324817e-45,-0.009765625,-0.3246753215789795,-1.401298464324817e-45,-1.401298464324817e-45,4.641655921936035,0.08826851844787598,-0.6052989959716797,-16.7673282623291,8.696833610534668,-18.98586082458496,-0.005639619659632444,0.0,-0.1345452219247818,-0.09023391455411911,0.005639619659632444,-0.020947160199284554,23.763017654418945,0.0,-0.14986315369606018,-0.04253784567117691,-1.140629768371582,29.670000076293945,-18.96888542175293,0.0,0.0,0.0,0.0,0.0,4.6346049308776855,0.09200622886419296,-0.6148483753204346,-16.76780128479004,8.717251777648926,false,5,254,true,1777792862117555142
1777792862381150916,-1.401298464324817e-45,-1.401298464324817e-45,-0.009765625,-0.3246753215789795,-1.401298464324817e-45,-1.401298464324817e-45,4.641655921936035,0.08826851844787598,-0.6052989959716797,-16.7673282623291,8.696833610534668,-18.98586082458496,-0.005639619659632444,0.0,-0.1345452219247818,-0.09023391455411911,0.005639619659632444,-0.020947160199284554,23.763017654418945,0.0,-0.14986315369606018,-0.04253784567117691,-1.140629768371582,29.670000076293945,0.0,0.0,0.0,0.0,0.0,0.0,0.0,2.3693572021746376e-38,2.350988981904268e-38,9.219142596792972e-41,0.0,false,0,51,true,1777792862117555142
1777792862481146316,-1.401298464324817e-45,-1.401298464324817e-45,-0.009765625,-0.3246753215789795,-1.401298464324817e-45,-1.401298464324817e-45,0.0,0.0,-0.12487729638814926,-0.0926508978009224,0.005639619659632444,-0.022558478638529778,-0.005639619659632444,0.0,-0.1345452219247818,-0.09023391455411911,0.005639619659632444,-0.020947160199284554,23.763017654418945,0.0,-0.14986315369606018,-0.04253784567117691,-1.140629768371582,29.670000076293945,0.0,0.0,0.0,0.0,0.0,0.0,0.0,2.3693572021746376e-38,2.350988981904268e-38,9.219142596792972e-41,0.0,false,0,51,true,1777792862417750527
1777792862581139679,-1.401298464324817e-45,-1.401298464324817e-45,-0.009765625,-0.3246753215789795,-1.401298464324817e-45,-1.401298464324817e-45,0.0,0.0,-0.12487729638814926,-0.0926508978009224,0.005639619659632444,-0.022558478638529778,0.0,2.3693572021746376e-38,2.350988981904268e-38,9.219142596792972e-41,0.0,0.0,-1.401298464324817e-45,-1.401298464324817e-45,-0.009765625,-0.3246753215789795,-1.401298464324817e-45,-1.401298464324817e-45,0.0,0.0,0.0,0.0,0.0,0.0,0.0,2.3693572021746376e-38,2.350988981904268e-38,9.219142596792972e-41,0.0,false,0,51,true,1777792862417750527
1777792862681140468,-1.401298464324817e-45,-1.401298464324817e-45,-0.009765625,-0.3246753215789795,-1.401298464324817e-45,-1.401298464324817e-45,0.0,0.0,-0.12487729638814926,-0.0926508978009224,0.005639619659632444,-0.022558478638529778,0.0,2.3693572021746376e-38,2.350988981904268e-38,9.219142596792972e-41,0.0,0.0,-1.401298464324817e-45,-1.401298464324817e-45,-0.009765625,-0.3246753215789795,-1.401298464324817e-45,-1.401298464324817e-45,0.0,0.0,0.0,0.0,0.0,0.0,0.0,2.3693572021746376e-38,2.350988981904268e-38,9.219142596792972e-41,0.0,false,0,51,true,1777792862417750527
1777792862781154645,-1.401298464324817e-45,-1.401298464324817e-45,-0.009765625,-0.3246753215789795,-1.401298464324817e-45,-1.401298464324817e-45,0.0,0.0,-0.12487729638814926,-0.0926508978009224,0.005639619659632444,-0.022558478638529778,0.0,2.3693572021746376e-38,2.350988981904268e-38,9.219142596792972e-41,0.0,0.0,-1.401298464324817e-45,-1.401298464324817e-45,-0.009765625,-0.3246753215789795,-1.401298464324817e-45,-1.401298464324817e-45,-0.022558478638529778,0.0,0.0,0.0,0.0,0.0,-0.0016113199526444077,0.0,-0.12326597422361374,-0.09426221996545792,0.005639619659632444,false,5,254,true,1777792862417750527
1777792862880921415,274.9136962890625,174.953125,78.55330657958984,242.5046844482422,84.15071105957031,74.74246978759766,-1.401298464324817e-45,-1.401298464324817e-45,-0.009765625,-0.3246753215789795,-1.401298464324817e-45,-1.401298464324817e-45,0.0,2.3693572021746376e-38,2.350988981904268e-38,9.219142596792972e-41,0.0,0.0,-1.401298464324817e-45,-1.401298464324817e-45,-0.009765625,-0.3246753215789795,-1.401298464324817e-45,-1.401298464324817e-45,-0.022558478638529778,0.0,0.0,0.0,0.0,0.0,-0.0016113199526444077,0.0,-0.12326597422361374,-0.09426221996545792,0.005639619659632444,false,5,254,true,1777792862717944190
1777792862981148315,274.9136962890625,174.953125,78.55330657958984,242.5046844482422,84.15071105957031,74.74246978759766,-1.401298464324817e-45,-1.401298464324817e-45,-0.009765625,-0.3246753215789795,-1.401298464324817e-45,-1.401298464324817e-45,4.63228702545166,0.08906500041484833,-0.6491531133651733,-16.761445999145508,8.711783409118652,-18.978599548339844,-0.0016113199526444077,0.0,-0.1240716353058815,-0.09184523671865463,0.0032226399052888155,-0.021752819418907166,-0.022558478638529778,0.0,0.0,0.0,0.0,0.0,-0.0016113199526444077,0.0,-0.12326597422361374,-0.09426221996545792,0.005639619659632444,false,5,254,true,1777792862717944190
1777792863081153956,274.9136962890625,174.953125,78.55330657958984,242.5046844482422,84.15071105957031,74.74246978759766,-1.401298464324817e-45,-1.401298464324817e-45,-0.009765625,-0.3246753215789795,-1.401298464324817e-45,-1.401298464324817e-45,4.63228702545166,0.08906500041484833,-0.6491531133651733,-16.761445999145508,8.711783409118652,-18.978599548339844,-0.0016113199526444077,0.0,-0.1240716353058815,-0.09184523671865463,0.0032226399052888155,-0.021752819418907166,29.59000015258789,28.790000915527344,34.75,34.83000183105469,32.0099983215332,35.959999084472656,23.763017654418945,0.0,-0.1498134881258011,-0.04031062126159668,-1.1401641368865967,false,5,254,true,1777792863018142260
1777792863181152559,274.9136962890625,174.953125,78.55330657958984,242.5046844482422,84.15071105957031,74.74246978759766,-1.401298464324817e-45,-1.401298464324817e-45,-0.009765625,-0.3246753215789795,-1.401298464324817e-45,-1.401298464324817e-45,4.621578693389893,0.12067386507987976,-0.6375943422317505,-16.754018783569336,8.7206392288208,-18.99842071533203,-0.0024169799871742725,-0.0008056599763222039,-0.12246031314134598,-0.08942826092243195,0.0032226399052888155,-0.02416979894042015,29.59000015258789,28.790000915527344,34.75,34.83000183105469,32.0099983215332,35.959999084472656,23.763017654418945,0.0,-0.1498134881258011,-0.04031062126159668,-1.1401641368865967,false,5,254,true,1777792863018142260
1777792863281158237,274.9136962890625,174.953125,78.55330657958984,242.5046844482422,84.15071105957031,74.74246978759766,-1.401298464324817e-45,-1.401298464324817e-45,-0.009765625,-0.3246753215789795,-1.401298464324817e-45,-1.401298464324817e-45,4.621578693389893,0.12067386507987976,-0.6375943422317505,-16.754018783569336,8.7206392288208,-18.99842071533203,-0.0024169799871742725,-0.0008056599763222039,-0.12246031314134598,-0.08942826092243195,0.0032226399052888155,-0.02416979894042015,29.59000015258789,28.790000915527344,34.75,34.90999984741211,32.0099983215332,35.880001068115234,23.76221466064453,0.0,-0.15054145455360413,-0.04270513728260994,-1.13969087600708,false,5,254,true,1777792863018142260
1777792863381164711,274.9136962890625,174.953125,78.55330657958984,242.5046844482422,84.15071105957031,74.74246978759766,-1.401298464324817e-45,-1.401298464324817e-45,-0.009765625,-0.3246753215789795,-1.401298464324817e-45,-1.401298464324817e-45,4.621578693389893,0.12067386507987976,-0.6375943422317505,-16.754018783569336,8.7206392288208,-18.99842071533203,-0.0024169799871742725,-0.0008056599763222039,-0.12246031314134598,-0.08942826092243195,0.0032226399052888155,-0.02416979894042015,29.59000015258789,28.790000915527344,34.75,34.90999984741211,32.0099983215332,35.880001068115234,23.76221466064453,0.0,-0.15054145455360413,-0.04270513728260994,-1.13969087600708,false,5,254,true,1777792863318359775
1777792863480918832,274.9136962890625,174.953125,78.55330657958984,242.5046844482422,84.15071105957031,74.74246978759766,-1.401298464324817e-45,-1.401298464324817e-45,-0.009765625,-0.3246753215789795,-1.401298464324817e-45,-1.401298464324817e-45,4.621578693389893,0.12067386507987976,-0.6375943422317505,-16.754018783569336,8.7206392288208,-18.99842071533203,-0.0024169799871742725,-0.0008056599763222039,-0.12246031314134598,-0.08942826092243195,0.0032226399052888155,-0.02416979894042015,29.59000015258789,28.790000915527344,34.75,34.90999984741211,32.0099983215332,35.880001068115234,23.76221466064453,0.0,-0.15054145455360413,-0.04270513728260994,-1.13969087600708,false,5,254,true,1777792863318359775
1777792863581149696,274.9136962890625,174.953125,78.55330657958984,242.5046844482422,84.15071105957031,74.74246978759766,-1.401298464324817e-45,-1.401298464324817e-45,-0.009765625,-0.3246753215789795,-1.401298464324817e-45,-1.401298464324817e-45,4.61182975769043,0.125453382730484,-0.6239598989486694,-16.766395568847656,8.731500625610352,-18.97809410095215,-0.0008056599763222039,0.0,-0.12326597422361374,-0.09345655888319016,0.007250939961522818,-0.022558478638529778,29.59000015258789,28.790000915527344,34.75,34.90999984741211,32.0099983215332,35.880001068115234,23.76221466064453,0.0,-0.15054145455360413,-0.04270513728260994,-1.13969087600708,false,5,254,true,1777792863318359775
1777792863681154355,274.9136962890625,174.953125,78.55330657958984,242.5046844482422,84.15071105957031,74.74246978759766,-1.401298464324817e-45,-1.401298464324817e-45,-0.009765625,-0.3246753215789795,-1.401298464324817e-45,-1.401298464324817e-45,4.61182975769043,0.125453382730484,-0.6239598989486694,-16.766395568847656,8.731500625610352,-18.97809410095215,-0.0008056599763222039,0.0,-0.12326597422361374,-0.09345655888319016,0.007250939961522818,-0.022558478638529778,29.670000076293945,28.709999084472656,34.75,34.9900016784668,32.0099983215332,35.880001068115234,23.76221466064453,0.0,-0.1510508805513382,-0.039685167372226715,-1.139894723892212,false,5,254,true,1777792863618582253
1777792863781153125,274.9136962890625,174.953125,78.55330657958984,242.5046844482422,84.15071105957031,74.74246978759766,-1.401298464324817e-45,-1.401298464324817e-45,-0.009765625,-0.3246753215789795,-1.401298464324817e-45,-1.401298464324817e-45,4.61182975769043,0.125453382730484,-0.6239598989486694,-16.766395568847656,8.731500625610352,-18.97809410095215,-0.0008056599763222039,0.0,-0.12326597422361374,-0.09345655888319016,0.007250939961522818,-0.022558478638529778,29.670000076293945,28.709999084472656,34.75,34.9900016784668,32.0099983215332,35.880001068115234,23.76221466064453,0.0,-0.1510508805513382,-0.039685167372226715,-1.139894723892212,false,5,254,true,1777792863618582253
1777792863880918431,274.9136962890625,174.953125,78.55330657958984,242.5046844482422,84.15071105957031,74.74246978759766,-1.401298464324817e-45,-1.401298464324817e-45,-0.009765625,-0.3246753215789795,-1.401298464324817e-45,-1.401298464324817e-45,4.61182975769043,0.125453382730484,-0.6239598989486694,-16.766395568847656,8.731500625610352,-18.97809410095215,-0.0008056599763222039,0.0,-0.12326597422361374,-0.09345655888319016,0.007250939961522818,-0.022558478638529778,29.670000076293945,28.709999084472656,34.75,34.9900016784668,32.0099983215332,35.880001068115234,23.76221466064453,0.0,-0.1510508805513382,-0.039685167372226715,-1.139894723892212,false,5,254,true,1777792863618582253
1777792863980918202,274.9136962890625,174.953125,78.55330657958984,242.5046844482422,84.15071105957031,74.74246978759766,-1.401298464324817e-45,-1.401298464324817e-45,-0.009765625,-0.3246753215789795,-1.401298464324817e-45,-1.401298464324817e-45,4.61182975769043,0.125453382730484,-0.6239598989486694,-16.766395568847656,8.731500625610352,-18.97809410095215,-0.0008056599763222039,0.0,-0.12326597422361374,-0.09345655888319016,0.007250939961522818,-0.022558478638529778,-18.98609161376953,0.0,0.0,0.0,0.0,0.0,4.644691467285156,0.1157873123884201,-0.6199553608894348,-16.765243530273438,8.709244728088379,true,0,39,true,1777792863618582253
1777792864081166843,0.0,2.3693572021746376e-38,2.350988981904268e-38,9.219142596792972e-41,0.0,0.0,-1.401298464324817e-45,-1.401298464324817e-45,-0.009765625,-0.3246753215789795,-1.401298464324817e-45,-1.401298464324817e-45,4.61182975769043,0.125453382730484,-0.6239598989486694,-16.766395568847656,8.731500625610352,-18.97809410095215,-0.0008056599763222039,0.0,-0.12326597422361374,-0.09345655888319016,0.007250939961522818,-0.022558478638529778,-18.98609161376953,0.0,0.0,0.0,0.0,0.0,4.644691467285156,0.1157873123884201,-0.6199553608894348,-16.765243530273438,8.709244728088379,true,0,39,true,1777792864025080239
1777792864180922335,0.0,2.3693572021746376e-38,2.350988981904268e-38,9.219142596792972e-41,0.0,0.0,-1.401298464324817e-45,-1.401298464324817e-45,-0.009765625,-0.3246753215789795,-1.401298464324817e-45,-1.401298464324817e-45,4.588658809661865,0.12015393376350403,-0.6346259117126465,-16.77031135559082,8.725488662719727,-18.97480010986328,0.0,0.0,-0.1240716353058815,-0.09426221996545792,0.0032226399052888155,-0.021752819418907166,-18.98609161376953,0.0,0.0,0.0,0.0,0.0,4.644691467285156,0.1157873123884201,-0.6199553608894348,-16.765243530273438,8.709244728088379,true,0,39,true,1777792864025080239
1777792864280947327,0.0,2.3693572021746376e-38,2.350988981904268e-38,9.219142596792972e-41,0.0,0.0,-1.401298464324817e-45,-1.401298464324817e-45,-0.009765625,-0.3246753215789795,-1.401298464324817e-45,-1.401298464324817e-45,4.588658809661865,0.12015393376350403,-0.6346259117126465,-16.77031135559082,8.725488662719727,-18.97480010986328,0.0,0.0,-0.1240716353058815,-0.09426221996545792,0.0032226399052888155,-0.021752819418907166,-18.98609161376953,0.0,0.0,0.0,0.0,0.0,4.644691467285156,0.1157873123884201,-0.6199553608894348,-16.765243530273438,8.709244728088379,true,0,39,true,1777792864025080239
1777792864380930227,0.0,2.3693572021746376e-38,2.350988981904268e-38,9.219142596792972e-41,0.0,0.0,-1.401298464324817e-45,-1.401298464324817e-45,-0.009765625,-0.3246753215789795,-1.401298464324817e-45,-1.401298464324817e-45,4.588658809661865,0.12015393376350403,-0.6346259117126465,-16.77031135559082,8.725488662719727,-18.97480010986328,0.0,0.0,-0.1240716353058815,-0.09426221996545792,0.0032226399052888155,-0.021752819418907166,29.670000076293945,28.790000915527344,34.75,34.90999984741211,32.0099983215332,35.880001068115234,23.76221466064453,0.0,-0.15099287033081055,-0.04207213595509529,-1.139574408531189,false,5,254,true,1777792864025080239
1777792864480925812,274.9136962890625,174.953125,78.55330657958984,242.5046844482422,84.15071105957031,74.74246978759766,-1.401298464324817e-45,-1.401298464324817e-45,-0.009765625,-0.3246753215789795,-1.401298464324817e-45,-1.401298464324817e-45,4.588658809661865,0.12015393376350403,-0.6346259117126465,-16.77031135559082,8.725488662719727,-18.97480010986328,0.0,0.0,-0.1240716353058815,-0.09426221996545792,0.0032226399052888155,-0.021752819418907166,29.670000076293945,28.790000915527344,34.75,34.90999984741211,32.0099983215332,35.880001068115234,23.76221466064453,0.0,-0.15099287033081055,-0.04207213595509529,-1.139574408531189,false,5,254,true,1777792864332712717
1777792864580935304,274.9136962890625,174.953125,78.55330657958984,242.5046844482422,84.15071105957031,74.74246978759766,-1.401298464324817e-45,-1.401298464324817e-45,-0.009765625,-0.3246753215789795,-1.401298464324817e-45,-1.401298464324817e-45,4.588658809661865,0.12015393376350403,-0.6346259117126465,-16.77031135559082,8.725488662719727,-18.97480010986328,0.0,0.0,-0.1240716353058815,-0.09426221996545792,0.0032226399052888155,-0.021752819418907166,29.670000076293945,28.790000915527344,34.75,34.90999984741211,32.0099983215332,35.880001068115234,23.76221466064453,0.0,-0.15099287033081055,-0.04207213595509529,-1.139574408531189,false,5,254,true,1777792864332712717
1777792864680923500,274.9136962890625,174.953125,78.55330657958984,242.5046844482422,84.15071105957031,74.74246978759766,-1.401298464324817e-45,-1.401298464324817e-45,-0.009765625,-0.3246753215789795,-1.401298464324817e-45,-1.401298464324817e-45,4.588658809661865,0.12015393376350403,-0.6346259117126465,-16.77031135559082,8.725488662719727,-18.97480010986328,0.0,0.0,-0.1240716353058815,-0.09426221996545792,0.0032226399052888155,-0.021752819418907166,29.670000076293945,28.790000915527344,34.75,34.90999984741211,32.0099983215332,35.880001068115234,23.76221466064453,0.0,-0.15099287033081055,-0.04207213595509529,-1.139574408531189,false,5,254,true,1777792864332712717
1777792864780935752,274.9136962890625,174.953125,78.55330657958984,242.5046844482422,84.15071105957031,74.74246978759766,-1.401298464324817e-45,-1.401298464324817e-45,-0.009765625,-0.3246753215789795,-1.401298464324817e-45,-1.401298464324817e-45,4.588658809661865,0.12015393376350403,-0.6346259117126465,-16.77031135559082,8.725488662719727,-18.97480010986328,0.0,0.0,-0.1240716353058815,-0.09426221996545792,0.0032226399052888155,-0.021752819418907166,29.670000076293945,28.790000915527344,34.75,34.90999984741211,32.0099983215332,35.880001068115234,23.76221466064453,0.0,-0.15099287033081055,-0.04207213595509529,-1.139574408531189,false,5,254,true,1777792864332712717
1777792864880918411,4.65853214263916,0.10546911507844925,-0.640424370765686,-16.758392333984375,8.74034309387207,-18.985275268554688,-0.0016113199526444077,0.0,-0.1240716353058815,-0.09426221996545792,0.0016113199526444077,-0.022558478638529778,4.588658809661865,0.12015393376350403,-0.6346259117126465,-16.77031135559082,8.725488662719727,-18.97480010986328,0.0,0.0,-0.1240716353058815,-0.09426221996545792,0.0032226399052888155,-0.021752819418907166,29.670000076293945,28.790000915527344,34.75,34.90999984741211,32.0099983215332,35.880001068115234,23.76221466064453,0.0,-0.15099287033081055,-0.04207213595509529,-1.139574408531189,true,1,216,true,1777792864830699266
1777792864980932552,4.65853214263916,0.10546911507844925,-0.640424370765686,-16.758392333984375,8.74034309387207,-18.985275268554688,-0.0016113199526444077,0.0,-0.1240716353058815,-0.09426221996545792,0.0016113199526444077,-0.022558478638529778,23.76221466064453,0.0,-0.1499362736940384,-0.04219333082437515,-1.1410585641860962,29.59000015258789,0.0,2.3693572021746376e-38,2.350988981904268e-38,9.219142596792972e-41,0.0,0.0,29.670000076293945,28.790000915527344,34.75,34.90999984741211,32.0099983215332,35.880001068115234,23.76221466064453,0.0,-0.15099287033081055,-0.04207213595509529,-1.139574408531189,true,1,216,true,1777792864830699266
1777792865080937359,4.65853214263916,0.10546911507844925,-0.640424370765686,-16.758392333984375,8.74034309387207,-18.985275268554688,-0.0016113199526444077,0.0,-0.1240716353058815,-0.09426221996545792,0.0016113199526444077,-0.022558478638529778,23.76221466064453,0.0,-0.1499362736940384,-0.04219333082437515,-1.1410585641860962,29.59000015258789,0.0,2.3693572021746376e-38,2.350988981904268e-38,9.219142596792972e-41,0.0,0.0,74.74246978759766,0.0,0.0,0.0,0.0,0.0,274.9136962890625,174.953125,78.55330657958984,242.5046844482422,84.15071105957031,true,1,216,true,1777792864830699266
1777792865180945999,4.65853214263916,0.10546911507844925,-0.640424370765686,-16.758392333984375,8.74034309387207,-18.985275268554688,-0.0016113199526444077,0.0,-0.1240716353058815,-0.09426221996545792,0.0016113199526444077,-0.022558478638529778,23.76221466064453,0.0,-0.1499362736940384,-0.04219333082437515,-1.1410585641860962,29.59000015258789,0.0,2.3693572021746376e-38,2.350988981904268e-38,9.219142596792972e-41,0.0,0.0,74.74246978759766,0.0,0.0,0.0,0.0,0.0,274.9136962890625,174.953125,78.55330657958984,242.5046844482422,84.15071105957031,true,1,216,true,1777792864830699266
1777792865280937881,-0.0024169799871742725,0.0,-0.12246031314134598,-0.09023391455411911,0.004833959974348545,-0.02416979894042015,0.0,2.3693572021746376e-38,2.350988981904268e-38,9.219142596792972e-41,0.0,0.0,274.9136962890625,174.953125,78.55330657958984,242.5046844482422,84.15071105957031,74.74246978759766,-1.401298464324817e-45,-1.401298464324817e-45,-0.009765625,-0.3246753215789795,-1.401298464324817e-45,-1.401298464324817e-45,74.74246978759766,0.0,0.0,0.0,0.0,0.0,274.9136962890625,174.953125,78.55330657958984,242.5046844482422,84.15071105957031,true,1,216,true,1777792865130890466
1777792865380930669,-0.0024169799871742725,0.0,-0.12246031314134598,-0.09023391455411911,0.004833959974348545,-0.02416979894042015,0.0,2.3693572021746376e-38,2.350988981904268e-38,9.219142596792972e-41,0.0,0.0,274.9136962890625,174.953125,78.55330657958984,242.5046844482422,84.15071105957031,74.74246978759766,-1.401298464324817e-45,-1.401298464324817e-45,-0.009765625,-0.3246753215789795,-1.401298464324817e-45,-1.401298464324817e-45,-0.02336413972079754,0.0,0.0,0.0,0.0,0.0,-0.0024169799871742725,0.0,-0.12890559434890747,-0.09023391455411911,0.004833959974348545,false,5,254,true,1777792865130890466
1777792865480932958,-0.0024169799871742725,0.0,-0.12246031314134598,-0.09023391455411911,0.004833959974348545,-0.02416979894042015,0.0,2.3693572021746376e-38,2.350988981904268e-38,9.219142596792972e-41,0.0,0.0,274.9136962890625,174.953125,78.55330657958984,242.5046844482422,84.15071105957031,74.74246978759766,-1.401298464324817e-45,-1.401298464324817e-45,-0.009765625,-0.3246753215789795,-1.401298464324817e-45,-1.401298464324817e-45,-0.02336413972079754,0.0,0.0,0.0,0.0,0.0,-0.0024169799871742725,0.0,-0.12890559434890747,-0.09023391455411911,0.004833959974348545,false,5,254,true,1777792865130890466
1777792865580929598,274.9136962890625,174.953125,78.55330657958984,242.5046844482422,84.15071105957031,74.74261474609375,-1.401298464324817e-45,-1.401298464324817e-45,-0.009765625,-0.3246753215789795,-1.401298464324817e-45,-1.401298464324817e-45,274.9136962890625,174.953125,78.55330657958984,242.5046844482422,84.15071105957031,74.74246978759766,-1.401298464324817e-45,-1.401298464324817e-45,-0.009765625,-0.3246753215789795,-1.401298464324817e-45,-1.401298464324817e-45,-0.02336413972079754,0.0,0.0,0.0,0.0,0.0,-0.0024169799871742725,0.0,-0.12890559434890747,-0.09023391455411911,0.004833959974348545,false,5,254,true,1777792865441008450
1777792865681110739,274.9136962890625,174.953125,78.55330657958984,242.5046844482422,84.15071105957031,74.74261474609375,-1.401298464324817e-45,-1.401298464324817e-45,-0.009765625,-0.3246753215789795,-1.401298464324817e-45,-1.401298464324817e-45,4.636890411376953,0.08876398950815201,-0.6303591132164001,-16.767047882080078,8.728395462036133,-18.982967376708984,0.0,-0.0008056599763222039,-0.12004333734512329,-0.08539995551109314,0.006445279810577631,-0.022558478638529778,-0.02336413972079754,0.0,0.0,0.0,0.0,0.0,-0.0024169799871742725,0.0,-0.12890559434890747,-0.09023391455411911,0.004833959974348545,false,5,254,true,1777792865441008450
1777792865780930528,274.9136962890625,174.953125,78.55330657958984,242.5046844482422,84.15071105957031,74.74261474609375,-1.401298464324817e-45,-1.401298464324817e-45,-0.009765625,-0.3246753215789795,-1.401298464324817e-45,-1.401298464324817e-45,4.636890411376953,0.08876398950815201,-0.6303591132164001,-16.767047882080078,8.728395462036133,-18.982967376708984,0.0,-0.0008056599763222039,-0.12004333734512329,-0.08539995551109314,0.006445279810577631,-0.022558478638529778,29.59000015258789,28.790000915527344,34.75,34.90999984741211,32.09000015258789,35.880001068115234,23.76221466064453,0.0,-0.15151658654212952,-0.03953417018055916,-1.1403460502624512,false,5,254,true,1777792865441008450
1777792865880936409,274.9136962890625,174.953125,78.55330657958984,242.5046844482422,84.15071105957031,74.74261474609375,-1.401298464324817e-45,-1.401298464324817e-45,-0.009765625,-0.3246753215789795,-1.401298464324817e-45,-1.401298464324817e-45,4.636890411376953,0.08876398950815201,-0.6303591132164001,-16.767047882080078,8.728395462036133,-18.982967376708984,0.0,-0.0008056599763222039,-0.12004333734512329,-0.08539995551109314,0.006445279810577631,-0.022558478638529778,29.59000015258789,28.790000915527344,34.75,34.90999984741211,32.09000015258789,35.880001068115234,23.76221466064453,0.0,-0.15151658654212952,-0.03953417018055916,-1.1403460502624512,false,5,254,true,1777792865441008450
1777792865980940216,274.9136962890625,174.953125,78.55330657958984,242.5046844482422,84.15071105957031,74.74261474609375,274.9136962890625,174.953125,78.55330657958984,242.5046844482422,84.15071105957031,74.74261474609375,-1.401298464324817e-45,-1.401298464324817e-45,-0.009765625,-0.3246753215789795,-1.401298464324817e-45,-1.401298464324817e-45,-0.0008056599763222039,0.0,-0.12165465950965881,-0.09426221996545792,0.00966791994869709,-0.020141499117016792,29.59000015258789,28.790000915527344,34.75,34.90999984741211,32.09000015258789,35.880001068115234,23.76221466064453,0.0,-0.15151658654212952,-0.03953417018055916,-1.1403460502624512,false,5,254,true,1777792865441008450
1777792866080938505,274.9136962890625,174.953125,78.55330657958984,242.5046844482422,84.15071105957031,74.74261474609375,274.9136962890625,174.953125,78.55330657958984,242.5046844482422,84.15071105957031,74.74261474609375,-1.401298464324817e-45,-1.401298464324817e-45,-0.009765625,-0.3246753215789795,-1.401298464324817e-45,-1.401298464324817e-45,-0.0008056599763222039,0.0,-0.12165465950965881,-0.09426221996545792,0.00966791994869709,-0.020141499117016792,29.59000015258789,28.790000915527344,34.75,34.90999984741211,32.09000015258789,35.880001068115234,23.76221466064453,0.0,-0.15151658654212952,-0.03953417018055916,-1.1403460502624512,false,5,254,true,1777792865441008450
1777792866180936701,274.9136962890625,174.953125,78.55330657958984,242.5046844482422,84.15071105957031,74.74261474609375,274.9136962890625,174.953125,78.55330657958984,242.5046844482422,84.15071105957031,74.74261474609375,-1.401298464324817e-45,-1.401298464324817e-45,-0.009765625,-0.3246753215789795,-1.401298464324817e-45,-1.401298464324817e-45,-0.0008056599763222039,0.0,-0.12165465950965881,-0.09426221996545792,0.00966791994869709,-0.020141499117016792,29.59000015258789,28.790000915527344,34.75,34.90999984741211,32.09000015258789,35.880001068115234,23.76221466064453,0.0,-0.15151658654212952,-0.03953417018055916,-1.1403460502624512,false,5,254,true,1777792865441008450
1777792866280938156,274.9136962890625,174.953125,78.55330657958984,242.5046844482422,84.15071105957031,74.74261474609375,274.9136962890625,174.953125,78.55330657958984,242.5046844482422,84.15071105957031,74.74261474609375,-1.401298464324817e-45,-1.401298464324817e-45,-0.009765625,-0.3246753215789795,-1.401298464324817e-45,-1.401298464324817e-45,-0.0008056599763222039,0.0,-0.12165465950965881,-0.09426221996545792,0.00966791994869709,-0.020141499117016792,29.59000015258789,28.790000915527344,34.75,34.90999984741211,32.09000015258789,35.880001068115234,23.76221466064453,0.0,-0.15151658654212952,-0.03953417018055916,-1.1403460502624512,false,5,254,true,1777792865441008450
1777792866380950871,274.9136962890625,174.953125,78.55330657958984,242.5046844482422,84.15071105957031,74.74261474609375,274.9136962890625,174.953125,78.55330657958984,242.5046844482422,84.15071105957031,74.74261474609375,-1.401298464324817e-45,-1.401298464324817e-45,-0.009765625,-0.3246753215789795,-1.401298464324817e-45,-1.401298464324817e-45,-0.0008056599763222039,0.0,-0.12165465950965881,-0.09426221996545792,0.00966791994869709,-0.020141499117016792,29.59000015258789,28.790000915527344,34.75,34.90999984741211,32.09000015258789,35.880001068115234,23.76221466064453,0.0,-0.15151658654212952,-0.03953417018055916,-1.1403460502624512,false,5,254,true,1777792865441008450
1777792866480946863,274.9136962890625,174.953125,78.55330657958984,242.5046844482422,84.15071105957031,74.74261474609375,23.76221466064453,0.0,-0.14898736774921417,-0.04277070239186287,-1.1419562101364136,29.510000228881836,0.0,2.3693572021746376e-38,2.350988981904268e-38,9.219142596792972e-41,0.0,0.0,274.9136962890625,174.953125,78.55330657958984,242.5046844482422,84.15071105957031,74.74261474609375,29.59000015258789,28.790000915527344,34.75,34.90999984741211,32.09000015258789,35.880001068115234,23.76221466064453,0.0,-0.15151658654212952,-0.03953417018055916,-1.1403460502624512,false,5,254,true,1777792865441008450
1777792866580960448,274.9136962890625,174.953125,78.55330657958984,242.5046844482422,84.15071105957031,74.74261474609375,23.76221466064453,0.0,-0.14898736774921417,-0.04277070239186287,-1.1419562101364136,29.510000228881836,0.0,2.3693572021746376e-38,2.350988981904268e-38,9.219142596792972e-41,0.0,0.0,274.9136962890625,174.953125,78.55330657958984,242.5046844482422,84.15071105957031,74.74261474609375,-1.401298464324817e-45,0.0,0.0,0.0,0.0,0.0,-1.401298464324817e-45,-1.401298464324817e-45,-0.009765625,-0.3246753215789795,-1.401298464324817e-45,true,0,245,true,1777792865441008450
1777792866680957552,274.9136962890625,174.953125,78.55330657958984,242.5046844482422,84.15071105957031,74.74261474609375,23.76221466064453,0.0,-0.14898736774921417,-0.04277070239186287,-1.1419562101364136,29.510000228881836,0.0,2.3693572021746376e-38,2.350988981904268e-38,9.219142596792972e-41,0.0,0.0,274.9136962890625,174.953125,78.55330657958984,242.5046844482422,84.15071105957031,74.74261474609375,-1.401298464324817e-45,0.0,0.0,0.0,0.0,0.0,-1.401298464324817e-45,-1.401298464324817e-45,-0.009765625,-0.3246753215789795,-1.401298464324817e-45,true,0,245,true,1777792865441008450
1777792866780951600,0.0,2.3693572021746376e-38,2.350988981904268e-38,9.219142596792972e-41,0.0,0.0,23.76221466064453,0.0,-0.14898736774921417,-0.04277070239186287,-1.1419562101364136,29.510000228881836,0.0,2.3693572021746376e-38,2.350988981904268e-38,9.219142596792972e-41,0.0,0.0,274.9136962890625,174.953125,78.55330657958984,242.5046844482422,84.15071105957031,74.74261474609375,-1.401298464324817e-45,0.0,0.0,0.0,0.0,0.0,-1.401298464324817e-45,-1.401298464324817e-45,-0.009765625,-0.3246753215789795,-1.401298464324817e-45,true,0,245,true,1777792866602478984
1777792866880979092,0.0,2.3693572021746376e-38,2.350988981904268e-38,9.219142596792972e-41,0.0,0.0,23.76221466064453,0.0,-0.14898736774921417,-0.04277070239186287,-1.1419562101364136,29.510000228881836,-1.401298464324817e-45,-1.401298464324817e-45,-0.009765625,-0.3246753215789795,-1.401298464324817e-45,-1.401298464324817e-45,4.624738693237305,0.1117127537727356,-0.6380650401115417,-16.769981384277344,8.703300476074219,-18.986146926879883,29.59000015258789,28.709999084472656,34.75,34.90999984741211,32.0099983215332,35.880001068115234,23.76221466064453,0.0,-0.150905042886734,-0.0418245792388916,-1.139312505722046,false,5,254,true,1777792866602478984
1777792866980962011,0.0,2.3693572021746376e-38,2.350988981904268e-38,9.219142596792972e-41,0.0,0.0,23.76221466064453,0.0,-0.14898736774921417,-0.04277070239186287,-1.1419562101364136,29.510000228881836,-1.401298464324817e-45,-1.401298464324817e-45,-0.009765625,-0.3246753215789795,-1.401298464324817e-45,-1.401298464324817e-45,4.624738693237305,0.1117127537727356,-0.6380650401115417,-16.769981384277344,8.703300476074219,-18.986146926879883,29.59000015258789,28.709999084472656,34.75,34.90999984741211,32.0099983215332,35.880001068115234,23.76221466064453,0.0,-0.150905042886734,-0.0418245792388916,-1.139312505722046,false,5,254,true,1777792866602478984
1777792867080951281,274.9136962890625,174.953125,78.55330657958984,242.5046844482422,84.15071105957031,74.74261474609375,-1.401298464324817e-45,-1.401298464324817e-45,-0.009765625,-0.3246753215789795,-1.401298464324817e-45,-1.401298464324817e-45,-1.401298464324817e-45,-1.401298464324817e-45,-0.009765625,-0.3246753215789795,-1.401298464324817e-45,-1.401298464324817e-45,4.624738693237305,0.1117127537727356,-0.6380650401115417,-16.769981384277344,8.703300476074219,-18.986146926879883,29.59000015258789,28.709999084472656,34.75,34.90999984741211,32.0099983215332,35.880001068115234,23.76221466064453,0.0,-0.150905042886734,-0.0418245792388916,-1.139312505722046,false,5,254,true,1777792866910980501
1777792867180961681,274.9136962890625,174.953125,78.55330657958984,242.5046844482422,84.15071105957031,74.74261474609375,-1.401298464324817e-45,-1.401298464324817e-45,-0.009765625,-0.3246753215789795,-1.401298464324817e-45,-1.401298464324817e-45,4.636292934417725,0.11008157581090927,-0.5995375514030457,-16.75981330871582,8.711600303649902,-18.98098373413086,-0.0008056599763222039,0.0,-0.1280999332666397,-0.09103957563638687,0.005639619659632444,-0.021752819418907166,29.59000015258789,28.709999084472656,34.75,34.90999984741211,32.0099983215332,35.880001068115234,23.76221466064453,0.0,-0.150905042886734,-0.0418245792388916,-1.139312505722046,false,5,254,true,1777792866910980501
1777792867280957692,274.9136962890625,174.953125,78.55330657958984,242.5046844482422,84.15071105957031,74.74261474609375,-1.401298464324817e-45,-1.401298464324817e-45,-0.009765625,-0.3246753215789795,-1.401298464324817e-45,-1.401298464324817e-45,4.636292934417725,0.11008157581090927,-0.5995375514030457,-16.75981330871582,8.711600303649902,-18.98098373413086,-0.0008056599763222039,0.0,-0.1280999332666397,-0.09103957563638687,0.005639619659632444,-0.021752819418907166,29.670000076293945,28.709999084472656,34.90999984741211,34.83000183105469,31.93000030517578,35.959999084472656,23.76221466064453,0.0,-0.15169858932495117,-0.04286527633666992,-1.139719843864441,false,5,254,true,1777792866910980501
1777792867380950295,274.9136962890625,174.953125,78.55330657958984,242.5046844482422,84.15071105957031,74.74261474609375,-1.401298464324817e-45,-1.401298464324817e-45,-0.009765625,-0.3246753215789795,-1.401298464324817e-45,-1.401298464324817e-45,4.636292934417725,0.11008157581090927,-0.5995375514030457,-16.75981330871582,8.711600303649902,-18.98098373413086,-0.0008056599763222039,0.0,-0.1280999332666397,-0.09103957563638687,0.005639619659632444,-0.021752819418907166,29.670000076293945,28.709999084472656,34.90999984741211,34.83000183105469,31.93000030517578,35.959999084472656,23.76221466064453,0.0,-0.15169858932495117,-0.04286527633666992,-1.139719843864441,false,5,254,true,1777792867244402877
1777792867480953861,274.9136962890625,174.953125,78.55330657958984,242.5046844482422,84.15071105957031,74.74261474609375,-1.401298464324817e-45,-1.401298464324817e-45,-0.009765625,-0.3246753215789795,-1.401298464324817e-45,-1.401298464324817e-45,4.641040325164795,0.1148923709988594,-0.6477823257446289,-16.75988006591797,8.747159004211426,-18.980539321899414,0.0,-0.0008056599763222039,-0.12326597422361374,-0.09184523671865463,0.0040282998234033585,-0.017724519595503807,29.670000076293945,28.709999084472656,34.90999984741211,34.83000183105469,31.93000030517578,35.959999084472656,23.76221466064453,0.0,-0.15169858932495117,-0.04286527633666992,-1.139719843864441,false,5,254,true,1777792867244402877
1777792867580951891,274.9136962890625,174.953125,78.55330657958984,242.5046844482422,84.15071105957031,74.74261474609375,-1.401298464324817e-45,-1.401298464324817e-45,-0.009765625,-0.3246753215789795,-1.401298464324817e-45,-1.401298464324817e-45,4.641040325164795,0.1148923709988594,-0.6477823257446289,-16.75988006591797,8.747159004211426,-18.980539321899414,0.0,-0.0008056599763222039,-0.12326597422361374,-0.09184523671865463,0.0040282998234033585,-0.017724519595503807,29.59000015258789,28.709999084472656,34.75,34.9900016784668,32.0099983215332,35.959999084472656,23.76221466064453,0.0,-0.15082517266273499,-0.041931070387363434,-1.1396328210830688,false,5,254,true,1777792867244402877
1777792867680961994,274.9136962890625,174.953125,78.55330657958984,242.5046844482422,84.15071105957031,74.74261474609375,-1.401298464324817e-45,-1.401298464324817e-45,-0.009765625,-0.3246753215789795,-1.401298464324817e-45,-1.401298464324817e-45,4.641040325164795,0.1148923709988594,-0.6477823257446289,-16.75988006591797,8.747159004211426,-18.980539321899414,0.0,-0.0008056599763222039,-0.12326597422361374,-0.09184523671865463,0.0040282998234033585,-0.017724519595503807,29.59000015258789,28.709999084472656,34.75,34.9900016784668,32.0099983215332,35.959999084472656,23.76221466064453,0.0,-0.15082517266273499,-0.041931070387363434,-1.1396328210830688,false,5,254,true,1777792867544605448
1777792867780971394,274.9136962890625,174.953125,78.55330657958984,242.5046844482422,84.15071105957031,74.74261474609375,-1.401298464324817e-45,-1.401298464324817e-45,-0.009765625,-0.3246753215789795,-1.401298464324817e-45,-1.401298464324817e-45,4.641040325164795,0.1148923709988594,-0.6477823257446289,-16.75988006591797,8.747159004211426,-18.980539321899414,0.0,-0.0008056599763222039,-0.12326597422361374,-0.09184523671865463,0.0040282998234033585,-0.017724519595503807,29.59000015258789,28.709999084472656,34.75,34.9900016784668,32.0099983215332,35.959999084472656,23.76221466064453,0.0,-0.15082517266273499,-0.041931070387363434,-1.1396328210830688,false,5,254,true,1777792867544605448
1777792867880962461,274.9136962890625,174.953125,78.55330657958984,242.5046844482422,84.15071105957031,74.74261474609375,-1.401298464324817e-45,-1.401298464324817e-45,-0.009765625,-0.3246753215789795,-1.401298464324817e-45,-1.401298464324817e-45,-1.401298464324817e-45,-1.401298464324817e-45,-0.009765625,-0.3246753215789795,-1.401298464324817e-45,-1.401298464324817e-45,0.0,-0.0008056599763222039,-0.12326597422361374,-0.09184523671865463,0.0040282998234033585,-0.017724519595503807,-18.98598289489746,0.0,0.0,0.0,0.0,0.0,4.603180885314941,0.14359785616397858,-0.6574761867523193,-16.767929077148438,8.715402603149414,true,0,141,true,1777792867544605448
1777792867980965768,274.9136962890625,174.953125,78.55330657958984,242.5046844482422,84.15071105957031,74.74261474609375,-1.401298464324817e-45,-1.401298464324817e-45,-0.009765625,-0.3246753215789795,-1.401298464324817e-45,-1.401298464324817e-45,-1.401298464324817e-45,-1.401298464324817e-45,-0.009765625,-0.3246753215789795,-1.401298464324817e-45,-1.401298464324817e-45,0.0,-0.0008056599763222039,-0.12326597422361374,-0.09184523671865463,0.0040282998234033585,-0.017724519595503807,-18.98598289489746,0.0,0.0,0.0,0.0,0.0,4.603180885314941,0.14359785616397858,-0.6574761867523193,-16.767929077148438,8.715402603149414,true,0,141,true,1777792867544605448
1777792868080979834,0.0,2.3693572021746376e-38,2.350988981904268e-38,9.219142596792972e-41,0.0,0.0,-1.401298464324817e-45,-1.401298464324817e-45,-0.009765625,-0.3246753215789795,-1.401298464324817e-45,-1.401298464324817e-45,-1.401298464324817e-45,-1.401298464324817e-45,-0.009765625,-0.3246753215789795,-1.401298464324817e-45,-1.401298464324817e-45,0.0,-0.0008056599763222039,-0.12326597422361374,-0.09184523671865463,0.0040282998234033585,-0.017724519595503807,-18.98598289489746,0.0,0.0,0.0,0.0,0.0,4.603180885314941,0.14359785616397858,-0.6574761867523193,-16.767929077148438,8.715402603149414,true,0,141,true,1777792867953076642
1777792868180972808,0.0,2.3693572021746376e-38,2.350988981904268e-38,9.219142596792972e-41,0.0,0.0,-1.401298464324817e-45,-1.401298464324817e-45,-0.009765625,-0.3246753215789795,-1.401298464324817e-45,-1.401298464324817e-45,-1.401298464324817e-45,-1.401298464324817e-45,-0.009765625,-0.3246753215789795,-1.401298464324817e-45,-1.401298464324817e-45,0.0,-0.0008056599763222039,-0.12326597422361374,-0.09184523671865463,0.0040282998234033585,-0.017724519595503807,-18.98598289489746,0.0,0.0,0.0,0.0,0.0,4.603180885314941,0.14359785616397858,-0.6574761867523193,-16.767929077148438,8.715402603149414,true,0,141,true,1777792867953076642
1777792868280983579,0.0,2.3693572021746376e-38,2.350988981904268e-38,9.219142596792972e-41,0.0,0.0,-1.401298464324817e-45,-1.401298464324817e-45,-0.009765625,-0.3246753215789795,-1.401298464324817e-45,-1.401298464324817e-45,-1.401298464324817e-45,-1.401298464324817e-45,-0.009765625,-0.3246753215789795,-1.401298464324817e-45,-1.401298464324817e-45,0.0,-0.0008056599763222039,-0.12326597422361374,-0.09184523671865463,0.0040282998234033585,-0.017724519595503807,-18.98598289489746,0.0,0.0,0.0,0.0,0.0,4.603180885314941,0.14359785616397858,-0.6574761867523193,-16.767929077148438,8.715402603149414,true,0,141,true,1777792867953076642
1777792868380981089,-0.0024169799871742725,0.0,-0.1240716353058815,-0.09184523671865463,0.005639619659632444,-0.026586778461933136,23.762409210205078,0.0,-0.14965136349201202,-0.042974550276994705,-1.1403385400772095,29.670000076293945,-1.401298464324817e-45,-1.401298464324817e-45,-0.009765625,-0.3246753215789795,-1.401298464324817e-45,-1.401298464324817e-45,0.0,-0.0008056599763222039,-0.12326597422361374,-0.09184523671865463,0.0040282998234033585,-0.017724519595503807,-18.98598289489746,0.0,0.0,0.0,0.0,0.0,4.603180885314941,0.14359785616397858,-0.6574761867523193,-16.767929077148438,8.715402603149414,false,167,157,true,1777792868333962564
1777792868480985526,-0.0024169799871742725,0.0,-0.1240716353058815,-0.09184523671865463,0.005639619659632444,-0.026586778461933136,23.762409210205078,0.0,-0.14965136349201202,-0.042974550276994705,-1.1403385400772095,29.670000076293945,0.0,2.3693572021746376e-38,2.350988981904268e-38,9.219142596792972e-41,0.0,0.0,-1.401298464324817e-45,-1.401298464324817e-45,-0.009765625,-0.3246753215789795,-1.401298464324817e-45,-1.401298464324817e-45,-18.98598289489746,0.0,0.0,0.0,0.0,0.0,4.603180885314941,0.14359785616397858,-0.6574761867523193,-16.767929077148438,8.715402603149414,false,167,157,true,1777792868333962564
1777792868580967574,-0.0024169799871742725,0.0,-0.1240716353058815,-0.09184523671865463,0.005639619659632444,-0.026586778461933136,23.762409210205078,0.0,-0.14965136349201202,-0.042974550276994705,-1.1403385400772095,29.670000076293945,0.0,2.3693572021746376e-38,2.350988981904268e-38,9.219142596792972e-41,0.0,0.0,-1.401298464324817e-45,-1.401298464324817e-45,-0.009765625,-0.3246753215789795,-1.401298464324817e-45,-1.401298464324817e-45,-18.98598289489746,0.0,0.0,0.0,0.0,0.0,4.603180885314941,0.14359785616397858,-0.6574761867523193,-16.767929077148438,8.715402603149414,false,167,157,true,1777792868333962564
1777792868680985789,-0.0024169799871742725,0.0,-0.1240716353058815,-0.09184523671865463,0.005639619659632444,-0.026586778461933136,23.762409210205078,0.0,-0.14965136349201202,-0.042974550276994705,-1.1403385400772095,29.670000076293945,0.0,2.3693572021746376e-38,2.350988981904268e-38,9.219142596792972e-41,0.0,0.0,-1.401298464324817e-45,-1.401298464324817e-45,-0.009765625,-0.3246753215789795,-1.401298464324817e-45,-1.401298464324817e-45,-0.024975460022687912,0.0,0.0,0.0,0.0,0.0,-0.0008056599763222039,0.0,-0.12084899842739105,-0.09023391455411911,0.006445279810577631,false,5,254,true,1777792868333962564
1777792868780986392,274.9136962890625,174.953125,78.55330657958984,242.5046844482422,84.15071105957031,74.74261474609375,23.762409210205078,0.0,-0.14965136349201202,-0.042974550276994705,-1.1403385400772095,29.670000076293945,0.0,2.3693572021746376e-38,2.350988981904268e-38,9.219142596792972e-41,0.0,0.0,-1.401298464324817e-45,-1.401298464324817e-45,-0.009765625,-0.3246753215789795,-1.401298464324817e-45,-1.401298464324817e-45,-0.024975460022687912,0.0,0.0,0.0,0.0,0.0,-0.0008056599763222039,0.0,-0.12084899842739105,-0.09023391455411911,0.006445279810577631,false,5,254,true,1777792868634129819
1777792868880952459,274.9136962890625,174.953125,78.55330657958984,242.5046844482422,84.15071105957031,74.74261474609375,23.762409210205078,0.0,-0.14965136349201202,-0.042974550276994705,-1.1403385400772095,29.670000076293945,0.0,2.3693572021746376e-38,2.350988981904268e-38,9.219142596792972e-41,0.0,0.0,-1.401298464324817e-45,-1.401298464324817e-45,-0.009765625,-0.3246753215789795,-1.401298464324817e-45,-1.401298464324817e-45,-0.024975460022687912,0.0,0.0,0.0,0.0,0.0,-0.0008056599763222039,0.0,-0.12084899842739105,-0.09023391455411911,0.006445279810577631,false,5,254,true,1777792868634129819
1777792868980989062,274.9136962890625,174.953125,78.55330657958984,242.5046844482422,84.15071105957031,74.74261474609375,23.762409210205078,0.0,-0.14965136349201202,-0.042974550276994705,-1.1403385400772095,29.670000076293945,0.0,2.3693572021746376e-38,2.350988981904268e-38,9.219142596792972e-41,0.0,0.0,-1.401298464324817e-45,-1.401298464324817e-45,-0.009765625,-0.3246753215789795,-1.401298464324817e-45,-1.401298464324817e-45,-0.024975460022687912,0.0,0.0,0.0,0.0,0.0,-0.0008056599763222039,0.0,-0.12084899842739105,-0.09023391455411911,0.006445279810577631,false,5,254,true,1777792868634129819
1777792869080988999,274.9136962890625,174.953125,78.55330657958984,242.5046844482422,84.15071105957031,74.74261474609375,23.762409210205078,0.0,-0.14965136349201202,-0.042974550276994705,-1.1403385400772095,29.670000076293945,0.0,2.3693572021746376e-38,2.350988981904268e-38,9.219142596792972e-41,0.0,0.0,-1.401298464324817e-45,-1.401298464324817e-45,-0.009765625,-0.3246753215789795,-1.401298464324817e-45,-1.401298464324817e-45,-1.401298464324817e-45,0.0,0.0,0.0,0.0,0.0,-1.401298464324817e-45,-1.401298464324817e-45,-0.009765625,-0.3246753215789795,-1.401298464324817e-45,false,109,212,true,1777792868634129819
1777792869180985103,-0.0016113199526444077,-0.006445279810577631,-0.12165465950965881,-0.09023391455411911,0.005639619659632444,-0.021752819418907166,23.762409210205078,0.0,-0.15127182006835938,-0.040893156081438065,-1.1396033763885498,29.59000015258789,0.0,2.3693572021746376e-38,2.350988981904268e-38,9.219142596792972e-41,0.0,0.0,-1.401298464324817e-45,-1.401298464324817e-45,-0.009765625,-0.3246753215789795,-1.401298464324817e-45,-1.401298464324817e-45,-1.401298464324817e-45,0.0,0.0,0.0,0.0,0.0,-1.401298464324817e-45,-1.401298464324817e-45,-0.009765625,-0.3246753215789795,-1.401298464324817e-45,false,109,212,true,1777792869081096277
1777792869280991188,-0.0016113199526444077,-0.006445279810577631,-0.12165465950965881,-0.09023391455411911,0.005639619659632444,-0.021752819418907166,23.762409210205078,0.0,-0.15127182006835938,-0.040893156081438065,-1.1396033763885498,29.59000015258789,0.0,2.3693572021746376e-38,2.350988981904268e-38,9.219142596792972e-41,0.0,0.0,-1.401298464324817e-45,-1.401298464324817e-45,-0.009765625,-0.3246753215789795,-1.401298464324817e-45,-1.401298464324817e-45,-1.401298464324817e-45,0.0,0.0,0.0,0.0,0.0,-1.401298464324817e-45,-1.401298464324817e-45,-0.009765625,-0.3246753215789795,-1.401298464324817e-45,false,109,212,true,1777792869081096277
1777792869380983699,-0.0016113199526444077,-0.006445279810577631,-0.12165465950965881,-0.09023391455411911,0.005639619659632444,-0.021752819418907166,23.762409210205078,0.0,-0.15127182006835938,-0.040893156081438065,-1.1396033763885498,29.59000015258789,0.0,2.3693572021746376e-38,2.350988981904268e-38,9.219142596792972e-41,0.0,0.0,-1.401298464324817e-45,-1.401298464324817e-45,-0.009765625,-0.3246753215789795,-1.401298464324817e-45,-1.401298464324817e-45,-0.022558478638529778,0.0,0.0,0.0,0.0,0.0,-0.0008056599763222039,0.0,-0.12326597422361374,-0.09103957563638687,0.006445279810577631,true,0,0,true,1777792869081096277
1777792869480992691,-0.0016113199526444077,-0.006445279810577631,-0.12165465950965881,-0.09023391455411911,0.005639619659632444,-0.021752819418907166,23.762409210205078,0.0,-0.15127182006835938,-0.040893156081438065,-1.1396033763885498,29.59000015258789,0.0,2.3693572021746376e-38,2.350988981904268e-38,9.219142596792972e-41,0.0,0.0,-1.401298464324817e-45,-1.401298464324817e-45,-0.009765625,-0.3246753215789795,-1.401298464324817e-45,-1.401298464324817e-45,-0.022558478638529778,0.0,0.0,0.0,0.0,0.0,-0.0008056599763222039,0.0,-0.12326597422361374,-0.09103957563638687,0.006445279810577631,true,0,0,true,1777792869081096277
1777792869580997720,0.0,2.3693572021746376e-38,2.350988981904268e-38,9.219142596792972e-41,0.0,0.0,23.762409210205078,0.0,-0.15127182006835938,-0.040893156081438065,-1.1396033763885498,29.59000015258789,0.0,2.3693572021746376e-38,2.350988981904268e-38,9.219142596792972e-41,0.0,0.0,-1.401298464324817e-45,-1.401298464324817e-45,-0.009765625,-0.3246753215789795,-1.401298464324817e-45,-1.401298464324817e-45,-0.022558478638529778,0.0,0.0,0.0,0.0,0.0,-0.0008056599763222039,0.0,-0.12326597422361374,-0.09103957563638687,0.006445279810577631,true,0,0,true,1777792869381283551
1777792869680991750,0.0,2.3693572021746376e-38,2.350988981904268e-38,9.219142596792972e-41,0.0,0.0,23.762409210205078,0.0,-0.15127182006835938,-0.040893156081438065,-1.1396033763885498,29.59000015258789,274.9136962890625,174.953125,78.55330657958984,242.5046844482422,84.15071105957031,74.74261474609375,-1.401298464324817e-45,-1.401298464324817e-45,-0.009765625,-0.3246753215789795,-1.401298464324817e-45,-1.401298464324817e-45,-0.022558478638529778,0.0,0.0,0.0,0.0,0.0,-0.0008056599763222039,0.0,-0.12326597422361374,-0.09103957563638687,0.006445279810577631,true,0,0,true,1777792869381283551
1777792869780991224,0.0,2.3693572021746376e-38,2.350988981904268e-38,9.219142596792972e-41,0.0,0.0,23.762409210205078,0.0,-0.15127182006835938,-0.040893156081438065,-1.1396033763885498,29.59000015258789,274.9136962890625,174.953125,78.55330657958984,242.5046844482422,84.15071105957031,74.74261474609375,-1.401298464324817e-45,-1.401298464324817e-45,-0.009765625,-0.3246753215789795,-1.401298464324817e-45,-1.401298464324817e-45,-0.02416979894042015,0.0,0.0,0.0,0.0,0.0,-0.0008056599763222039,-0.005639619659632444,-0.12326597422361374,-0.09103957563638687,0.004833959974348545,false,5,254,true,1777792869381283551
1777792869880992327,274.9136962890625,174.953125,78.55330657958984,242.5046844482422,84.15071105957031,74.74261474609375,-1.401298464324817e-45,-1.401298464324817e-45,-0.009765625,-0.3246753215789795,-1.401298464324817e-45,-1.401298464324817e-45,274.9136962890625,174.953125,78.55330657958984,242.5046844482422,84.15071105957031,74.74261474609375,-1.401298464324817e-45,-1.401298464324817e-45,-0.009765625,-0.3246753215789795,-1.401298464324817e-45,-1.401298464324817e-45,-0.02416979894042015,0.0,0.0,0.0,0.0,0.0,-0.0008056599763222039,-0.005639619659632444,-0.12326597422361374,-0.09103957563638687,0.004833959974348545,false,5,254,true,1777792869781139502
1777792869981008912,274.9136962890625,174.953125,78.55330657958984,242.5046844482422,84.15071105957031,74.74261474609375,-1.401298464324817e-45,-1.401298464324817e-45,-0.009765625,-0.3246753215789795,-1.401298464324817e-45,-1.401298464324817e-45,4.613490581512451,0.11017682403326035,-0.6220565438270569,-16.772485733032227,8.738280296325684,-18.975536346435547,-0.0008056599763222039,0.0,-0.130516916513443,-0.09023391455411911,0.005639619659632444,-0.020141499117016792,-0.02416979894042015,0.0,0.0,0.0,0.0,0.0,-0.0008056599763222039,-0.005639619659632444,-0.12326597422361374,-0.09103957563638687,0.004833959974348545,false,5,254,true,1777792869781139502
1777793465272758605,274.9605712890625,174.9547882080078,78.55428314208984,242.5049591064453,84.16150665283203,74.74374389648438,274.9605712890625,174.9547882080078,78.55418395996094,242.5049591064453,84.1616439819336,74.74374389648438,-0.22321423888206482,-0.2008676379919052,-0.009765625,-0.3246753215789795,1.401298464324817e-45,-0.32449203729629517,4.458407402038574,0.49400991201400757,-0.47852277755737305,-16.702795028686523,9.048233032226562,-18.908428192138672,-0.02336413972079754,0.0,0.0,0.0,0.0,0.0,0.0,0.0,-0.12165465950965881,-0.09184523671865463,0.007250939961522818,false,5,254,true,1777793464597460646
1777793465373058153,274.9605712890625,174.9547882080078,78.55428314208984,242.5049591064453,84.16150665283203,74.74374389648438,274.9605712890625,174.9547882080078,78.55418395996094,242.5049591064453,84.1616439819336,74.74374389648438,-0.22321423888206482,-0.2008676379919052,-0.009765625,-0.3246753215789795,1.401298464324817e-45,-0.32449203729629517,4.458407402038574,0.49400991201400757,-0.47852277755737305,-16.702795028686523,9.048233032226562,-18.908428192138672,-0.02336413972079754,0.0,0.0,0.0,0.0,0.0,0.0,0.0,-0.12165465950965881,-0.09184523671865463,0.007250939961522818,false,5,254,true,1777793464597460646
1777793465472761386,274.9605712890625,174.9547882080078,78.55428314208984,242.5049591064453,84.16150665283203,74.74374389648438,274.96063232421875,174.95458984375,78.55418395996094,242.5049591064453,84.1616439819336,74.74388885498047,-0.22321423888206482,-0.22321423888206482,-0.009765625,-0.3246753215789795,1.401298464324817e-45,-1.401298464324817e-45,4.629377365112305,0.06475797295570374,-0.6791903376579285,-16.753171920776367,9.16262435913086,-18.96461296081543,-0.02336413972079754,0.0,0.0,0.0,0.0,0.0,0.0,0.0,-0.12165465950965881,-0.09184523671865463,0.007250939961522818,false,5,254,true,1777793464597460646
1777793465572996342,274.9605712890625,174.9547882080078,78.55428314208984,242.5049591064453,84.16150665283203,74.74374389648438,274.96063232421875,174.95458984375,78.55418395996094,242.5049591064453,84.1616439819336,74.74388885498047,-0.22321423888206482,-0.22321423888206482,-0.009765625,-0.3246753215789795,1.401298464324817e-45,-1.401298464324817e-45,4.629377365112305,0.06475797295570374,-0.6791903376579285,-16.753171920776367,9.16262435913086,-18.96461296081543,-0.02416979894042015,0.0,0.0,0.0,0.0,0.0,0.0,0.0,-0.12729427218437195,-0.09023391455411911,0.008862259797751904,false,5,254,true,1777793464597460646
1777793465673050723,274.9605712890625,174.95458984375,78.55428314208984,242.5049591064453,84.1616439819336,74.74388885498047,-0.22321423888206482,-0.22321423888206482,-0.009765625,-0.3246753215789795,1.401298464324817e-45,-1.401298464324817e-45,-0.22321423888206482,-0.22321423888206482,-0.009765625,-0.3246753215789795,1.401298464324817e-45,-1.401298464324817e-45,4.629377365112305,0.06475797295570374,-0.6791903376579285,-16.753171920776367,9.16262435913086,-18.96461296081543,-0.02416979894042015,0.0,0.0,0.0,0.0,0.0,0.0,0.0,-0.12729427218437195,-0.09023391455411911,0.008862259797751904,false,5,254,true,1777793465598511128
1777793465772758807,274.9605712890625,174.95458984375,78.55428314208984,242.5049591064453,84.1616439819336,74.74388885498047,-0.22321423888206482,-0.22321423888206482,-0.009765625,-0.3246753215789795,1.401298464324817e-45,-1.401298464324817e-45,-0.22321423888206482,-0.22321423888206482,-0.009765625,-0.3246753215789795,1.401298464324817e-45,-1.401298464324817e-45,4.629377365112305,0.06475797295570374,-0.6791903376579285,-16.753171920776367,9.16262435913086,-18.96461296081543,-0.02416979894042015,0.0,0.0,0.0,0.0,0.0,0.0,0.0,-0.12729427218437195,-0.09023391455411911,0.008862259797751904,false,5,254,true,1777793465598511128
1777793465872758429,274.9605712890625,174.95458984375,78.55428314208984,242.5049591064453,84.1616439819336,74.74388885498047,-0.22321423888206482,-0.22321423888206482,-0.009765625,-0.3246753215789795,1.401298464324817e-45,-1.401298464324817e-45,4.556558132171631,0.14551527798175812,-0.6223254203796387,-16.75855255126953,9.155708312988281,-18.974653244018555,-0.0008056599763222039,0.0,-0.12326597422361374,-0.09345655888319016,0.010473580099642277,-0.022558478638529778,-0.02416979894042015,0.0,0.0,0.0,0.0,0.0,0.0,0.0,-0.12729427218437195,-0.09023391455411911,0.008862259797751904,false,5,254,true,1777793465598511128
1777793465972771551,274.9605712890625,174.95458984375,78.55428314208984,242.5049591064453,84.1616439819336,74.74388885498047,-0.22321423888206482,-0.22321423888206482,-0.009765625,-0.3246753215789795,1.401298464324817e-45,-1.401298464324817e-45,4.556558132171631,0.14551527798175812,-0.6223254203796387,-16.75855255126953,9.155708312988281,-18.974653244018555,-0.0008056599763222039,0.0,-0.12326597422361374,-0.09345655888319016,0.010473580099642277,-0.022558478638529778,-0.02416979894042015,0.0,0.0,0.0,0.0,0.0,0.0,0.0,-0.12729427218437195,-0.09023391455411911,0.008862259797751904,false,5,254,true,1777793465598511128
1777793466072763544,274.9605712890625,174.95458984375,78.55428314208984,242.5049591064453,84.1616439819336,74.74388885498047,-0.22321423888206482,-0.22321423888206482,-0.009765625,-0.3246753215789795,1.401298464324817e-45,-1.401298464324817e-45,4.556558132171631,0.14551527798175812,-0.6223254203796387,-16.75855255126953,9.155708312988281,-18.974653244018555,-0.0008056599763222039,0.0,-0.12326597422361374,-0.09345655888319016,0.010473580099642277,-0.022558478638529778,-0.02416979894042015,0.0,0.0,0.0,0.0,0.0,0.0,0.0,-0.12729427218437195,-0.09023391455411911,0.008862259797751904,true,0,85,true,1777793465598511128
1777793466172822573,0.0,2.3693572021746376e-38,2.350988981904268e-38,9.219142596792972e-41,0.0,0.0,-0.22321423888206482,-0.22321423888206482,-0.009765625,-0.3246753215789795,1.401298464324817e-45,-1.401298464324817e-45,4.556558132171631,0.14551527798175812,-0.6223254203796387,-16.75855255126953,9.155708312988281,-18.974653244018555,-0.0008056599763222039,0.0,-0.12326597422361374,-0.09345655888319016,0.010473580099642277,-0.022558478638529778,-0.02416979894042015,0.0,0.0,0.0,0.0,0.0,0.0,0.0,-0.12729427218437195,-0.09023391455411911,0.008862259797751904,true,0,85,true,1777793465979644754
1777793466272774510,0.0,2.3693572021746376e-38,2.350988981904268e-38,9.219142596792972e-41,0.0,0.0,-0.22321423888206482,-0.22321423888206482,-0.009765625,-0.3246753215789795,1.401298464324817e-45,-1.401298464324817e-45,4.556558132171631,0.14551527798175812,-0.6223254203796387,-16.75855255126953,9.155708312988281,-18.974653244018555,274.9605712890625,174.95458984375,78.55428314208984,242.5049591064453,84.1616439819336,74.74388885498047,-1.401298464324817e-45,0.0,0.0,0.0,0.0,0.0,-0.22321423888206482,-0.22321423888206482,0.0,-0.3246753215789795,1.401298464324817e-45,false,250,14,true,1777793465979644754
1777793466372766151,0.0,-0.0016113199526444077,-0.12890559434890747,-0.08781693875789642,0.007250939961522818,-0.021752819418907166,0.0,2.3693572021746376e-38,2.350988981904268e-38,9.219142596792972e-41,0.0,0.0,4.556558132171631,0.14551527798175812,-0.6223254203796387,-16.75855255126953,9.155708312988281,-18.974653244018555,274.9605712890625,174.95458984375,78.55428314208984,242.5049591064453,84.1616439819336,74.74388885498047,-1.401298464324817e-45,0.0,0.0,0.0,0.0,0.0,-0.22321423888206482,-0.22321423888206482,0.0,-0.3246753215789795,1.401298464324817e-45,false,250,14,true,1777793466339794253
1777793466472777958,0.0,-0.0016113199526444077,-0.12890559434890747,-0.08781693875789642,0.007250939961522818,-0.021752819418907166,0.0,2.3693572021746376e-38,2.350988981904268e-38,9.219142596792972e-41,0.0,0.0,4.556558132171631,0.14551527798175812,-0.6223254203796387,-16.75855255126953,9.155708312988281,-18.974653244018555,274.9605712890625,174.95458984375,78.55428314208984,242.5049591064453,84.1616439819336,74.74388885498047,-1.401298464324817e-45,0.0,0.0,0.0,0.0,0.0,-0.22321423888206482,-0.22321423888206482,0.0,-0.3246753215789795,1.401298464324817e-45,false,250,14,true,1777793466339794253
1777793466572775043,0.0,-0.0016113199526444077,-0.12890559434890747,-0.08781693875789642,0.007250939961522818,-0.021752819418907166,0.0,2.3693572021746376e-38,2.350988981904268e-38,9.219142596792972e-41,0.0,0.0,-0.22321423888206482,-0.22321423888206482,0.0,-0.3246753215789795,1.401298464324817e-45,-1.401298464324817e-45,274.9605712890625,174.95458984375,78.55428314208984,242.5049591064453,84.1616439819336,74.74388885498047,-1.401298464324817e-45,0.0,0.0,0.0,0.0,0.0,-0.22321423888206482,-0.22321423888206482,0.0,-0.3246753215789795,1.401298464324817e-45,false,250,14,true,1777793466339794253
1777793466672763146,23.7641658782959,0.0,-0.15137353539466858,-0.03664731979370117,-1.141095519065857,29.59000015258789,0.0,2.3693572021746376e-38,2.350988981904268e-38,9.219142596792972e-41,0.0,0.0,-0.22321423888206482,-0.22321423888206482,0.0,-0.3246753215789795,1.401298464324817e-45,-1.401298464324817e-45,274.9605712890625,174.95458984375,78.55428314208984,242.5049591064453,84.1616439819336,74.74388885498047,-1.401298464324817e-45,0.0,0.0,0.0,0.0,0.0,-0.22321423888206482,-0.22321423888206482,0.0,-0.3246753215789795,1.401298464324817e-45,true,0,193,true,1777793466653329746
1777793466772783935,23.7641658782959,0.0,-0.15137353539466858,-0.03664731979370117,-1.141095519065857,29.59000015258789,0.0,2.3693572021746376e-38,2.350988981904268e-38,9.219142596792972e-41,0.0,0.0,-0.22321423888206482,-0.22321423888206482,0.0,-0.3246753215789795,1.401298464324817e-45,-1.401298464324817e-45,274.9605712890625,174.95458984375,78.55428314208984,242.5049591064453,84.1616439819336,74.74388885498047,-1.401298464324817e-45,0.0,0.0,0.0,0.0,0.0,-0.22321423888206482,-0.22321423888206482,0.0,-0.3246753215789795,1.401298464324817e-45,true,0,193,true,1777793466653329746
1777793466872803779,23.7641658782959,0.0,-0.15137353539466858,-0.03664731979370117,-1.141095519065857,29.59000015258789,0.0,2.3693572021746376e-38,2.350988981904268e-38,9.219142596792972e-41,0.0,0.0,-0.22321423888206482,-0.22321423888206482,0.0,-0.3246753215789795,1.401298464324817e-45,-1.401298464324817e-45,0.0,0.0,-0.12326597422361374,-0.0926508978009224,0.005639619659632444,-0.020141499117016792,-1.401298464324817e-45,0.0,0.0,0.0,0.0,0.0,-0.22321423888206482,-0.22321423888206482,0.0,-0.3246753215789795,1.401298464324817e-45,true,0,193,true,1777793466653329746
1777793466972787938,23.7641658782959,0.0,-0.15137353539466858,-0.03664731979370117,-1.141095519065857,29.59000015258789,0.0,2.3693572021746376e-38,2.350988981904268e-38,9.219142596792972e-41,0.0,0.0,-0.22321423888206482,-0.22321423888206482,0.0,-0.3246753215789795,1.401298464324817e-45,-1.401298464324817e-45,0.0,0.0,-0.12326597422361374,-0.0926508978009224,0.005639619659632444,-0.020141499117016792,-1.401298464324817e-45,0.0,0.0,0.0,0.0,0.0,-0.22321423888206482,-0.22321423888206482,0.0,-0.3246753215789795,1.401298464324817e-45,true,0,193,true,1777793466653329746
1777793467072789079,23.7641658782959,0.0,-0.15137353539466858,-0.03664731979370117,-1.141095519065857,29.59000015258789,0.0,2.3693572021746376e-38,2.350988981904268e-38,9.219142596792972e-41,0.0,0.0,-0.22321423888206482,-0.22321423888206482,0.0,-0.3246753215789795,1.401298464324817e-45,-1.401298464324817e-45,0.0,0.0,-0.12326597422361374,-0.0926508978009224,0.005639619659632444,-0.020141499117016792,29.59000015258789,28.709999084472656,35.880001068115234,35.06999969482422,31.690000534057617,35.47999954223633,23.7641658782959,0.0,-0.15048304200172424,-0.03737727552652359,-1.1406373977661133,true,0,193,true,1777793466653329746
1777793467172775960,0.0,2.3693572021746376e-38,2.350988981904268e-38,9.219142596792972e-41,0.0,0.0,-0.22321423888206482,-0.22321423888206482,0.0,-0.3246753215789795,1.401298464324817e-45,-1.401298464324817e-45,-0.22321423888206482,-0.22321423888206482,0.0,-0.3246753215789795,1.401298464324817e-45,-1.401298464324817e-45,0.0,0.0,-0.12326597422361374,-0.0926508978009224,0.005639619659632444,-0.020141499117016792,29.59000015258789,28.709999084472656,35.880001068115234,35.06999969482422,31.690000534057617,35.47999954223633,23.7641658782959,0.0,-0.15048304200172424,-0.03737727552652359,-1.1406373977661133,true,0,193,true,1777793467044999935
1777793467272781156,0.0,2.3693572021746376e-38,2.350988981904268e-38,9.219142596792972e-41,0.0,0.0,-0.22321423888206482,-0.22321423888206482,0.0,-0.3246753215789795,1.401298464324817e-45,-1.401298464324817e-45,-0.22321423888206482,-0.22321423888206482,0.0,-0.3246753215789795,1.401298464324817e-45,-1.401298464324817e-45,0.0,0.0,-0.12326597422361374,-0.0926508978009224,0.005639619659632444,-0.020141499117016792,29.59000015258789,28.709999084472656,35.880001068115234,35.06999969482422,31.690000534057617,35.47999954223633,23.7641658782959,0.0,-0.15048304200172424,-0.03737727552652359,-1.1406373977661133,true,0,193,true,1777793467044999935
1777793467372805927,0.0,2.3693572021746376e-38,2.350988981904268e-38,9.219142596792972e-41,0.0,0.0,-0.22321423888206482,-0.22321423888206482,0.0,-0.3246753215789795,1.401298464324817e-45,-1.401298464324817e-45,4.577362060546875,0.12752720713615417,-0.6156532168388367,-16.742618560791016,9.159741401672363,-18.97791290283203,0.0,0.0,-0.12326597422361374,-0.0926508978009224,0.005639619659632444,-0.020141499117016792,-0.024975460022687912,0.0,0.0,0.0,0.0,0.0,0.0,0.0,-0.12729427218437195,-0.0926508978009224,0.006445279810577631,true,0,21,true,1777793467044999935
1777793467472792289,0.0,2.3693572021746376e-38,2.350988981904268e-38,9.219142596792972e-41,0.0,0.0,274.9605712890625,174.95458984375,78.55428314208984,242.5049591064453,84.1616439819336,74.74388885498047,4.577362060546875,0.12752720713615417,-0.6156532168388367,-16.742618560791016,9.159741401672363,-18.97791290283203,0.0,0.0,-0.12326597422361374,-0.0926508978009224,0.005639619659632444,-0.020141499117016792,-0.024975460022687912,0.0,0.0,0.0,0.0,0.0,0.0,0.0,-0.12729427218437195,-0.0926508978009224,0.006445279810577631,true,0,21,true,1777793467377096715
1777793467572800430,0.0,2.3693572021746376e-38,2.350988981904268e-38,9.219142596792972e-41,0.0,0.0,274.9605712890625,174.95458984375,78.55428314208984,242.5049591064453,84.1616439819336,74.74388885498047,-0.22321423888206482,-0.22321423888206482,0.0,-0.3246753215789795,1.401298464324817e-45,-1.401298464324817e-45,0.0,0.0,-0.12004333734512329,-0.0926508978009224,0.008056599646806717,-0.021752819418907166,-0.024975460022687912,0.0,0.0,0.0,0.0,0.0,0.0,0.0,-0.12729427218437195,-0.0926508978009224,0.006445279810577631,true,0,21,true,1777793467377096715
1777793467672786144,0.0,2.3693572021746376e-38,2.350988981904268e-38,9.219142596792972e-41,0.0,0.0,274.9605712890625,174.95458984375,78.55428314208984,242.5049591064453,84.1616439819336,74.74388885498047,-0.22321423888206482,-0.22321423888206482,0.0,-0.3246753215789795,1.401298464324817e-45,-1.401298464324817e-45,0.0,0.0,-0.12004333734512329,-0.0926508978009224,0.008056599646806717,-0.021752819418907166,-0.024975460022687912,0.0,0.0,0.0,0.0,0.0,0.0,0.0,-0.12729427218437195,-0.0926508978009224,0.006445279810577631,true,0,21,true,1777793467377096715
1777793467772800063,274.9605712890625,174.95458984375,78.55428314208984,242.5049591064453,84.1616439819336,74.74388885498047,-0.22321423888206482,-0.22321423888206482,0.0,-0.3246753215789795,1.401298464324817e-45,-1.401298464324817e-45,-0.22321423888206482,-0.22321423888206482,0.0,-0.3246753215789795,1.401298464324817e-45,-1.401298464324817e-45,0.0,0.0,-0.12004333734512329,-0.0926508978009224,0.008056599646806717,-0.021752819418907166,29.59000015258789,28.709999084472656,35.79999923706055,35.22999954223633,31.530000686645508,35.38999938964844,23.7641658782959,0.0,-0.15126188099384308,-0.03822207450866699,-1.1405789852142334,false,5,254,true,1777793467690753782
1777793467872803444,274.9605712890625,174.95458984375,78.55428314208984,242.5049591064453,84.1616439819336,74.74388885498047,-0.22321423888206482,-0.22321423888206482,0.0,-0.3246753215789795,1.401298464324817e-45,-1.401298464324817e-45,4.615995407104492,0.08397627621889114,-0.6439298391342163,-16.750520706176758,9.15129566192627,-18.973453521728516,-0.0008056599763222039,0.0,-0.12729427218437195,-0.09184523671865463,0.006445279810577631,-0.017724519595503807,29.59000015258789,28.709999084472656,35.79999923706055,35.22999954223633,31.530000686645508,35.38999938964844,23.7641658782959,0.0,-0.15126188099384308,-0.03822207450866699,-1.1405789852142334,false,5,254,true,1777793467690753782
1777793467972804733,274.9605712890625,174.95458984375,78.55428314208984,242.5049591064453,84.1616439819336,74.74388885498047,-0.22321423888206482,-0.22321423888206482,0.0,-0.3246753215789795,1.401298464324817e-45,-1.401298464324817e-45,4.615995407104492,0.08397627621889114,-0.6439298391342163,-16.750520706176758,9.15129566192627,-18.973453521728516,-0.0008056599763222039,0.0,-0.12729427218437195,-0.09184523671865463,0.006445279810577631,-0.017724519595503807,29.59000015258789,28.709999084472656,35.79999923706055,35.22999954223633,31.530000686645508,35.38999938964844,23.7641658782959,0.0,-0.15126188099384308,-0.03822207450866699,-1.1405789852142334,false,5,254,true,1777793467690753782
1777793468072802707,274.9605712890625,174.95458984375,78.55428314208984,242.5049591064453,84.1616439819336,74.74388885498047,-0.22321423888206482,-0.22321423888206482,0.0,-0.3246753215789795,1.401298464324817e-45,-1.401298464324817e-45,4.615995407104492,0.08397627621889114,-0.6439298391342163,-16.750520706176758,9.15129566192627,-18.973453521728516,-0.0008056599763222039,0.0,-0.12729427218437195,-0.09184523671865463,0.006445279810577631,-0.017724519595503807,29.59000015258789,28.709999084472656,35.79999923706055,35.22999954223633,31.530000686645508,35.38999938964844,23.7641658782959,0.0,-0.15126188099384308,-0.03822207450866699,-1.1405789852142334,false,5,254,true,1777793467690753782
1777793468172802606,274.9605712890625,174.95458984375,78.55428314208984,242.5049591064453,84.1616439819336,74.74388885498047,-0.22321423888206482,-0.22321423888206482,0.0,-0.3246753215789795,1.401298464324817e-45,-1.401298464324817e-45,4.615995407104492,0.08397627621889114,-0.6439298391342163,-16.750520706176758,9.15129566192627,-18.973453521728516,-0.0008056599763222039,0.0,-0.12729427218437195,-0.09184523671865463,0.006445279810577631,-0.017724519595503807,29.59000015258789,28.709999084472656,35.79999923706055,35.22999954223633,31.530000686645508,35.38999938964844,23.7641658782959,0.0,-0.15126188099384308,-0.03822207450866699,-1.1405789852142334,true,0,106,true,1777793467690753782
1777793468272810877,0.0,2.3693572021746376e-38,2.350988981904268e-38,9.219142596792972e-41,0.0,0.0,-0.22321423888206482,-0.22321423888206482,0.0,-0.3246753215789795,1.401298464324817e-45,-1.401298464324817e-45,4.615995407104492,0.08397627621889114,-0.6439298391342163,-16.750520706176758,9.15129566192627,-18.973453521728516,-0.0008056599763222039,0.0,-0.12729427218437195,-0.09184523671865463,0.006445279810577631,-0.017724519595503807,29.59000015258789,28.709999084472656,35.79999923706055,35.22999954223633,31.530000686645508,35.38999938964844,23.7641658782959,0.0,-0.15126188099384308,-0.03822207450866699,-1.1405789852142334,true,0,106,true,1777793468086822538
1777793468372817554,0.0,2.3693572021746376e-38,2.350988981904268e-38,9.219142596792972e-41,0.0,0.0,-0.22321423888206482,-0.22321423888206482,0.0,-0.3246753215789795,1.401298464324817e-45,-1.401298464324817e-45,4.615995407104492,0.08397627621889114,-0.6439298391342163,-16.750520706176758,9.15129566192627,-18.973453521728516,274.9605712890625,174.95458984375,78.55428314208984,242.5049591064453,84.1616439819336,74.74388885498047,29.59000015258789,28.709999084472656,35.79999923706055,35.22999954223633,31.530000686645508,35.38999938964844,23.7641658782959,0.0,-0.15126188099384308,-0.03822207450866699,-1.1405789852142334,true,0,106,true,1777793468086822538
1777793468472798769,0.0,0.0,-0.12165465950965881,-0.09023391455411911,0.006445279810577631,-0.021752819418907166,23.7624568939209,0.0,-0.15163302421569824,-0.0372469425201416,-1.1411094665527344,29.510000228881836,4.615995407104492,0.08397627621889114,-0.6439298391342163,-16.750520706176758,9.15129566192627,-18.973453521728516,274.9605712890625,174.95458984375,78.55428314208984,242.5049591064453,84.1616439819336,74.74388885498047,-1.401298464324817e-45,0.0,0.0,0.0,0.0,0.0,-0.22321423888206482,-0.22321423888206482,0.0,-0.3246753215789795,1.401298464324817e-45,false,119,11,true,1777793468455123021
1777793468572805261,0.0,0.0,-0.12165465950965881,-0.09023391455411911,0.006445279810577631,-0.021752819418907166,23.7624568939209,0.0,-0.15163302421569824,-0.0372469425201416,-1.1411094665527344,29.510000228881836,0.0,2.3693572021746376e-38,2.350988981904268e-38,9.219142596792972e-41,0.0,0.0,-0.22321423888206482,-0.22321423888206482,0.0,-0.3246753215789795,1.401298464324817e-45,-1.401298464324817e-45,-1.401298464324817e-45,0.0,0.0,0.0,0.0,0.0,-0.22321423888206482,-0.22321423888206482,0.0,-0.3246753215789795,1.401298464324817e-45,false,119,11,true,1777793468455123021
1777793468672812531,0.0,0.0,-0.12165465950965881,-0.09023391455411911,0.006445279810577631,-0.021752819418907166,23.7624568939209,0.0,-0.15163302421569824,-0.0372469425201416,-1.1411094665527344,29.510000228881836,0.0,2.3693572021746376e-38,2.350988981904268e-38,9.219142596792972e-41,0.0,0.0,-0.22321423888206482,-0.22321423888206482,0.0,-0.3246753215789795,1.401298464324817e-45,-1.401298464324817e-45,-1.401298464324817e-45,0.0,0.0,0.0,0.0,0.0,-0.22321423888206482,-0.22321423888206482,0.0,-0.3246753215789795,1.401298464324817e-45,false,119,11,true,1777793468455123021
1777793468772816987,0.0,0.0,-0.12165465950965881,-0.09023391455411911,0.006445279810577631,-0.021752819418907166,23.7624568939209,0.0,-0.15163302421569824,-0.0372469425201416,-1.1411094665527344,29.510000228881836,0.0,2.3693572021746376e-38,2.350988981904268e-38,9.219142596792972e-41,0.0,0.0,-0.22321423888206482,-0.22321423888206482,0.0,-0.3246753215789795,1.401298464324817e-45,-1.401298464324817e-45,-0.021752819418907166,0.0,0.0,0.0,0.0,0.0,-0.0040282998234033585,-0.0008056599763222039,-0.12004333734512329,-0.09103957563638687,0.005639619659632444,false,5,254,true,1777793468455123021
1777793468872818331,0.0,0.0,-0.12165465950965881,-0.09023391455411911,0.006445279810577631,-0.021752819418907166,23.7624568939209,0.0,-0.15163302421569824,-0.0372469425201416,-1.1411094665527344,29.510000228881836,0.0,2.3693572021746376e-38,2.350988981904268e-38,9.219142596792972e-41,0.0,0.0,-0.22321423888206482,-0.22321423888206482,0.0,-0.3246753215789795,1.401298464324817e-45,-1.401298464324817e-45,-0.021752819418907166,0.0,0.0,0.0,0.0,0.0,-0.0040282998234033585,-0.0008056599763222039,-0.12004333734512329,-0.09103957563638687,0.005639619659632444,false,5,254,true,1777793468455123021
1777793468972818305,274.9605712890625,174.95458984375,78.55428314208984,242.5049591064453,84.1616439819336,74.74388885498047,23.7624568939209,0.0,-0.15163302421569824,-0.0372469425201416,-1.1411094665527344,29.510000228881836,0.0,2.3693572021746376e-38,2.350988981904268e-38,9.219142596792972e-41,0.0,0.0,-0.22321423888206482,-0.22321423888206482,0.0,-0.3246753215789795,1.401298464324817e-45,-1.401298464324817e-45,-0.021752819418907166,0.0,0.0,0.0,0.0,0.0,-0.0040282998234033585,-0.0008056599763222039,-0.12004333734512329,-0.09103957563638687,0.005639619659632444,false,5,254,true,1777793468755352017
1777793469072807520,274.9605712890625,174.95458984375,78.55428314208984,242.5049591064453,84.1616439819336,74.74388885498047,23.7624568939209,0.0,-0.15163302421569824,-0.0372469425201416,-1.1411094665527344,29.510000228881836,0.0,2.3693572021746376e-38,2.350988981904268e-38,9.219142596792972e-41,0.0,0.0,-0.22321423888206482,-0.22321423888206482,0.0,-0.3246753215789795,1.401298464324817e-45,-1.401298464324817e-45,-18.970413208007812,0.0,0.0,0.0,0.0,0.0,4.63228178024292,0.09762192517518997,-0.6369016766548157,-16.74601936340332,9.161897659301758,true,0,42,true,1777793468755352017
1777793469172813956,274.9605712890625,174.95458984375,78.55428314208984,242.5049591064453,84.1616439819336,74.74388885498047,23.7624568939209,0.0,-0.15163302421569824,-0.0372469425201416,-1.1411094665527344,29.510000228881836,0.0,2.3693572021746376e-38,2.350988981904268e-38,9.219142596792972e-41,0.0,0.0,-0.22321423888206482,-0.22321423888206482,0.0,-0.3246753215789795,1.401298464324817e-45,-1.401298464324817e-45,-18.970413208007812,0.0,0.0,0.0,0.0,0.0,4.63228178024292,0.09762192517518997,-0.6369016766548157,-16.74601936340332,9.161897659301758,true,0,42,true,1777793468755352017
1777793469272814597,0.0,2.3693572021746376e-38,2.350988981904268e-38,9.219142596792972e-41,0.0,0.0,-0.22321423888206482,-0.22321423888206482,0.0,-0.3246753215789795,1.401298464324817e-45,-1.401298464324817e-45,0.0,2.3693572021746376e-38,2.350988981904268e-38,9.219142596792972e-41,0.0,0.0,-0.22321423888206482,-0.22321423888206482,0.0,-0.3246753215789795,1.401298464324817e-45,-1.401298464324817e-45,-18.970413208007812,0.0,0.0,0.0,0.0,0.0,4.63228178024292,0.09762192517518997,-0.6369016766548157,-16.74601936340332,9.161897659301758,true,0,42,true,1777793469143577549
1777793469372812682,0.0,2.3693572021746376e-38,2.350988981904268e-38,9.219142596792972e-41,0.0,0.0,-0.22321423888206482,-0.22321423888206482,0.0,-0.3246753215789795,1.401298464324817e-45,-1.401298464324817e-45,4.608132362365723,0.11959108710289001,-0.644416093826294,-16.751235961914062,9.180890083312988,-18.982864379882812,0.0,0.0,-0.12084899842739105,-0.08701127767562866,0.006445279810577631,-0.022558478638529778,-18.970413208007812,0.0,0.0,0.0,0.0,0.0,4.63228178024292,0.09762192517518997,-0.6369016766548157,-16.74601936340332,9.161897659301758,true,0,42,true,1777793469143577549
1777793469472818971,0.0,2.3693572021746376e-38,2.350988981904268e-38,9.219142596792972e-41,0.0,0.0,-0.22321423888206482,-0.22321423888206482,0.0,-0.3246753215789795,1.401298464324817e-45,-1.401298464324817e-45,4.608132362365723,0.11959108710289001,-0.644416093826294,-16.751235961914062,9.180890083312988,-18.982864379882812,0.0,0.0,-0.12084899842739105,-0.08701127767562866,0.006445279810577631,-0.022558478638529778,29.510000228881836,28.6299991607666,35.720001220703125,35.150001525878906,31.610000610351562,35.47999954223633,23.7624568939209,0.0,-0.15054860711097717,-0.03814895823597908,-1.139508843421936,false,5,254,true,1777793469143577549
1777793469572825611,274.9605712890625,174.95458984375,78.55428314208984,242.5049591064453,84.1616439819336,74.74388885498047,-0.22321423888206482,-0.22321423888206482,0.0,-0.3246753215789795,1.401298464324817e-45,-1.401298464324817e-45,4.608132362365723,0.11959108710289001,-0.644416093826294,-16.751235961914062,9.180890083312988,-18.982864379882812,0.0,0.0,-0.12084899842739105,-0.08701127767562866,0.006445279810577631,-0.022558478638529778,29.510000228881836,28.6299991607666,35.720001220703125,35.150001525878906,31.610000610351562,35.47999954223633,23.7624568939209,0.0,-0.15054860711097717,-0.03814895823597908,-1.139508843421936,false,5,254,true,1777793469443766601
1777793469672831992,274.9605712890625,174.95458984375,78.55428314208984,242.5049591064453,84.1616439819336,74.74388885498047,-0.22321423888206482,-0.22321423888206482,0.0,-0.3246753215789795,1.401298464324817e-45,-1.401298464324817e-45,4.62880802154541,0.12076103687286377,-0.5992570519447327,-16.767263412475586,9.13286018371582,-18.979290008544922,0.0,0.0,-0.12246031314134598,-0.09184523671865463,0.008862259797751904,-0.02416979894042015,29.510000228881836,28.6299991607666,35.720001220703125,35.150001525878906,31.610000610351562,35.47999954223633,23.7624568939209,0.0,-0.15054860711097717,-0.03814895823597908,-1.139508843421936,false,5,254,true,1777793469443766601
1777793469772834522,274.9605712890625,174.95458984375,78.55428314208984,242.5049591064453,84.1616439819336,74.74388885498047,-0.22321423888206482,-0.22321423888206482,0.0,-0.3246753215789795,1.401298464324817e-45,-1.401298464324817e-45,4.62880802154541,0.12076103687286377,-0.5992570519447327,-16.767263412475586,9.13286018371582,-18.979290008544922,0.0,0.0,-0.12246031314134598,-0.09184523671865463,0.008862259797751904,-0.02416979894042015,29.59000015258789,28.6299991607666,35.880001068115234,35.150001525878906,31.610000610351562,35.47999954223633,23.7624568939209,0.0,-0.1499009132385254,-0.03742893412709236,-1.1408991813659668,false,5,254,true,1777793469443766601
1777793469872826070,274.9605712890625,174.95458984375,78.55428314208984,242.5049591064453,84.1616439819336,74.74388885498047,-0.22321423888206482,-0.22321423888206482,0.0,-0.3246753215789795,1.401298464324817e-45,-1.401298464324817e-45,4.62880802154541,0.12076103687286377,-0.5992570519447327,-16.767263412475586,9.13286018371582,-18.979290008544922,0.0,0.0,-0.12246031314134598,-0.09184523671865463,0.008862259797751904,-0.02416979894042015,29.59000015258789,28.6299991607666,35.880001068115234,35.150001525878906,31.610000610351562,35.47999954223633,23.7624568939209,0.0,-0.1499009132385254,-0.03742893412709236,-1.1408991813659668,false,5,254,true,1777793469743953283
1777793469972834303,274.9605712890625,174.95458984375,78.55428314208984,242.5049591064453,84.1616439819336,74.74388885498047,-0.22321423888206482,-0.22321423888206482,0.0,-0.3246753215789795,1.401298464324817e-45,-1.401298464324817e-45,4.650939464569092,0.11268582940101624,-0.6221681833267212,-16.7427921295166,9.09467601776123,-18.981534957885742,-0.01853017881512642,0.0,-0.1264886111021042,-0.09345655888319016,0.0024169799871742725,-0.02336413972079754,29.59000015258789,28.6299991607666,35.880001068115234,35.150001525878906,31.610000610351562,35.47999954223633,23.7624568939209,0.0,-0.1499009132385254,-0.03742893412709236,-1.1408991813659668,false,5,254,true,1777793469743953283
1777793470072830721,274.9605712890625,174.95458984375,78.55428314208984,242.5049591064453,84.1616439819336,74.74388885498047,-0.22321423888206482,-0.22321423888206482,0.0,-0.3246753215789795,1.401298464324817e-45,-1.401298464324817e-45,4.650939464569092,0.11268582940101624,-0.6221681833267212,-16.7427921295166,9.09467601776123,-18.981534957885742,-0.01853017881512642,0.0,-0.1264886111021042,-0.09345655888319016,0.0024169799871742725,-0.02336413972079754,29.59000015258789,28.709999084472656,35.880001068115234,35.150001525878906,31.610000610351562,35.560001373291016,23.7624568939209,0.0,-0.15004673600196838,-0.035893119871616364,-1.1400730609893799,false,5,254,true,1777793469743953283
1777793470172842158,274.9605712890625,174.95458984375,78.55428314208984,242.5049591064453,84.1616439819336,74.74388885498047,-0.22321423888206482,-0.22321423888206482,0.0,-0.3246753215789795,1.401298464324817e-45,-1.401298464324817e-45,4.650939464569092,0.11268582940101624,-0.6221681833267212,-16.7427921295166,9.09467601776123,-18.981534957885742,-0.01853017881512642,0.0,-0.1264886111021042,-0.09345655888319016,0.0024169799871742725,-0.02336413972079754,29.59000015258789,28.709999084472656,35.880001068115234,35.150001525878906,31.610000610351562,35.560001373291016,23.7624568939209,0.0,-0.15004673600196838,-0.035893119871616364,-1.1400730609893799,false,5,254,true,1777793470044151260
1777793470272844984,274.9605712890625,174.95458984375,78.55428314208984,242.5049591064453,84.1616439819336,74.74388885498047,-0.22321423888206482,-0.22321423888206482,0.0,-0.3246753215789795,1.401298464324817e-45,-1.401298464324817e-45,4.621914863586426,0.10722984373569489,-0.5878411531448364,-16.74375343322754,9.139123916625977,-18.9932861328125,-0.0008056599763222039,0.0,-0.12165465950965881,-0.09184523671865463,0.008056599646806717,-0.022558478638529778,29.59000015258789,28.709999084472656,35.880001068115234,35.150001525878906,31.610000610351562,35.560001373291016,23.7624568939209,0.0,-0.15004673600196838,-0.035893119871616364,-1.1400730609893799,false,5,254,true,1777793470044151260
1777793470372831624,274.9605712890625,174.95458984375,78.55428314208984,242.5049591064453,84.1616439819336,74.74388885498047,-0.22321423888206482,-0.22321423888206482,0.0,-0.3246753215789795,1.401298464324817e-45,-1.401298464324817e-45,4.621914863586426,0.10722984373569489,-0.5878411531448364,-16.74375343322754,9.139123916625977,-18.9932861328125,-0.0008056599763222039,0.0,-0.12165465950965881,-0.09184523671865463,0.008056599646806717,-0.022558478638529778,29.59000015258789,28.6299991607666,35.880001068115234,35.22999954223633,31.530000686645508,35.47999954223633,23.7624568939209,0.0,-0.1517418920993805,-0.03521640971302986,-1.1397126913070679,false,5,254,true,1777793470044151260
1777793470472836691,274.9605712890625,174.95458984375,78.55428314208984,242.5049591064453,84.1616439819336,74.74388885498047,-0.22321423888206482,-0.22321423888206482,0.0,-0.3246753215789795,1.401298464324817e-45,-1.401298464324817e-45,4.621914863586426,0.10722984373569489,-0.5878411531448364,-16.74375343322754,9.139123916625977,-18.9932861328125,-0.0008056599763222039,0.0,-0.12165465950965881,-0.09184523671865463,0.008056599646806717,-0.022558478638529778,29.59000015258789,28.6299991607666,35.880001068115234,35.22999954223633,31.530000686645508,35.47999954223633,23.7624568939209,0.0,-0.1517418920993805,-0.03521640971302986,-1.1397126913070679,false,5,254,true,1777793470346665003
1777793470572831757,274.9605712890625,174.95458984375,78.55428314208984,242.5049591064453,84.1616439819336,74.74388885498047,-0.22321423888206482,-0.22321423888206482,0.0,-0.3246753215789795,1.401298464324817e-45,-1.401298464324817e-45,4.622663974761963,0.1263401210308075,-0.6502417922019958,-16.75545883178711,9.15994930267334,-18.975740432739258,0.0,0.0,-0.1240716353058815,-0.09506787359714508,0.0,-0.02416979894042015,29.59000015258789,28.6299991607666,35.880001068115234,35.22999954223633,31.530000686645508,35.47999954223633,23.7624568939209,0.0,-0.1517418920993805,-0.03521640971302986,-1.1397126913070679,false,5,254,true,1777793470346665003
1777793470672854935,274.9605712890625,174.95458984375,78.55428314208984,242.5049591064453,84.1616439819336,74.74388885498047,-0.22321423888206482,-0.22321423888206482,0.0,-0.3246753215789795,1.401298464324817e-45,-1.401298464324817e-45,4.622663974761963,0.1263401210308075,-0.6502417922019958,-16.75545883178711,9.15994930267334,-18.975740432739258,0.0,0.0,-0.1240716353058815,-0.09506787359714508,0.0,-0.02416979894042015,29.510000228881836,28.709999084472656,35.79999923706055,35.150001525878906,31.610000610351562,35.560001373291016,23.7624568939209,0.0,-0.15209157764911652,-0.03737052157521248,-1.1401784420013428,false,5,254,true,1777793470346665003
1777793470772842057,274.9605712890625,174.95458984375,78.55428314208984,242.5049591064453,84.1616439819336,74.74388885498047,-0.22321423888206482,-0.22321423888206482,0.0,-0.3246753215789795,1.401298464324817e-45,-1.401298464324817e-45,4.622663974761963,0.1263401210308075,-0.6502417922019958,-16.75545883178711,9.15994930267334,-18.975740432739258,0.0,0.0,-0.1240716353058815,-0.09506787359714508,0.0,-0.02416979894042015,29.510000228881836,28.709999084472656,35.79999923706055,35.150001525878906,31.610000610351562,35.560001373291016,23.7624568939209,0.0,-0.15209157764911652,-0.03737052157521248,-1.1401784420013428,false,5,254,true,1777793470646857110
1777793470872849068,274.9605712890625,174.95458984375,78.55428314208984,242.5049591064453,84.1616439819336,74.74388885498047,-0.22321423888206482,-0.22321423888206482,0.0,-0.3246753215789795,1.401298464324817e-45,-1.401298464324817e-45,4.622663974761963,0.1263401210308075,-0.6502417922019958,-16.75545883178711,9.15994930267334,-18.975740432739258,0.0,0.0,-0.1240716353058815,-0.09506787359714508,0.0,-0.02416979894042015,29.510000228881836,28.709999084472656,35.79999923706055,35.150001525878906,31.610000610351562,35.560001373291016,23.7624568939209,0.0,-0.15209157764911652,-0.03737052157521248,-1.1401784420013428,false,5,254,true,1777793470646857110
1777793470972856616,274.9605712890625,174.95458984375,78.55428314208984,242.5049591064453,84.1616439819336,74.74388885498047,-0.22321423888206482,-0.22321423888206482,0.0,-0.3246753215789795,1.401298464324817e-45,-1.401298464324817e-45,4.622663974761963,0.1263401210308075,-0.6502417922019958,-16.75545883178711,9.15994930267334,-18.975740432739258,4.641600608825684,0.12191848456859589,-0.6017502546310425,-16.7541446685791,9.166972160339355,-18.973909378051758,29.510000228881836,28.709999084472656,35.79999923706055,35.150001525878906,31.610000610351562,35.560001373291016,23.7624568939209,0.0,-0.15209157764911652,-0.03737052157521248,-1.1401784420013428,false,5,254,true,1777793470646857110
1777793471072856164,274.9605712890625,174.95458984375,78.55428314208984,242.5049591064453,84.1616439819336,74.74388885498047,-0.22321423888206482,-0.22321423888206482,0.0,-0.3246753215789795,1.401298464324817e-45,-1.401298464324817e-45,4.622663974761963,0.1263401210308075,-0.6502417922019958,-16.75545883178711,9.15994930267334,-18.975740432739258,4.641600608825684,0.12191848456859589,-0.6017502546310425,-16.7541446685791,9.166972160339355,-18.973909378051758,-0.024975460022687912,0.0,0.0,0.0,0.0,0.0,-0.0016113199526444077,-0.0032226399052888155,-0.12084899842739105,-0.09426221996545792,0.005639619659632444,false,5,254,true,1777793470646857110
1777793471172848119,274.9605712890625,174.95458984375,78.55428314208984,242.5049591064453,84.1616439819336,74.74388885498047,-0.22321423888206482,-0.22321423888206482,0.0,-0.3246753215789795,1.401298464324817e-45,-1.401298464324817e-45,4.622663974761963,0.1263401210308075,-0.6502417922019958,-16.75545883178711,9.15994930267334,-18.975740432739258,4.641600608825684,0.12191848456859589,-0.6017502546310425,-16.7541446685791,9.166972160339355,-18.973909378051758,-0.024975460022687912,0.0,0.0,0.0,0.0,0.0,-0.0016113199526444077,-0.0032226399052888155,-0.12084899842739105,-0.09426221996545792,0.005639619659632444,false,5,254,true,1777793470646857110
1777793471272848223,274.9605712890625,174.95458984375,78.55428314208984,242.5049591064453,84.1616439819336,74.74388885498047,-0.22321423888206482,-0.22321423888206482,0.0,-0.3246753215789795,1.401298464324817e-45,-1.401298464324817e-45,4.622663974761963,0.1263401210308075,-0.6502417922019958,-16.75545883178711,9.15994930267334,-18.975740432739258,4.641600608825684,0.12191848456859589,-0.6017502546310425,-16.7541446685791,9.166972160339355,-18.973909378051758,-0.024975460022687912,0.0,0.0,0.0,0.0,0.0,-0.0016113199526444077,-0.0032226399052888155,-0.12084899842739105,-0.09426221996545792,0.005639619659632444,false,5,254,true,1777793470646857110
