timestamp_ns,joint_1_pos,joint_2_pos,joint_3_pos,joint_4_pos,joint_5_pos,joint_6_pos,joint_1_vel,joint_2_vel,joint_3_vel,joint_4_vel,joint_5_vel,joint_6_vel,joint_1_current,joint_2_current,joint_3_current,joint_4_current,joint_5_current,joint_6_current,joint_1_temp,joint_2_temp,joint_3_temp,joint_4_temp,joint_5_temp,joint_6_temp,bus_voltage,bus_current,accel_x,accel_y,accel_z,timestamp_ns
1781060971516004668,,,,,,,,,,,,,,,,,,,,,,,,,,,,,,
1781060971615988685,,,,,,,,,,,,,,,,,,,,,,,,,,,,,,
1781060971716410872,,,,,,,,,,,,,,,,,,,,,,,,,,,,,,
1781060971816350251,,,,,,,,,,,,,,,,,,,,,,,,,,,,,,
1781060971915958878,,,,,,,,,,,,,,,,,,,,,,,,,,,,,,
1781060972016350290,,,,,,,,,,,,,,,,,,,,,,,,,,,,,,
1781060972116337521,,,,,,,,,,,,,,,,,,,,,,,,,,,,,,
1781060972216323969,,,,,,,,,,,,,,,,,,,,,,,,,,,,,,
1781060972316227381,,,,,,,,,,,,,,,,,,,,,,,,,,,,,,
1781060972416270978,,,,,,,,,,,,,,,,,,,,,,,,,,,,,,
1781060972516178152,,,,,,,,,,,,,,,,,,,,,,,,,,,,,,
1781060972616248847,,,,,,,,,,,,,,,,,,,,,,,,,,,,,,
1781060972716171014,,,,,,,,,,,,,,,,,,,,,,,,,,,,,,
1781060972816261021,,,,,,,,,,,,,,,,,,,,,,,,,,,,,,
1781060972916293005,,,,,,,,,,,,,,,,,,,,,,,,,,,,,,
1781060973016391773,,,,,,,,,,,,,,,,,,,,,,,,,,,,,,
1781060973116405742,,,,,,,,,,,,,,,,,,,,,,,,,,,,,,
1781060973216276618,,,,,,,,,,,,,,,,,,,,,,,,,,,,,,
1781060973316373729,,,,,,,,,,,,,,,,,,,,,,,,,,,,,,
1781060973416360146,,,,,,,,,,,,,,,,,,,,,,,,,,,,,,
1781060973516313342,,,,,,,,,,,,,,,,,,,,,,,,,,,,,,
1781060973616265613,,,,,,,,,,,,,,,,,,,,,,,,,,,,,,
1781060973716289035,,,,,,,,,,,,,,,,,,,,,,,,,,,,,,
1781060973816308303,,,,,,,,,,,,,,,,,,,,,,,,,,,,,,
1781060973916312416,,,,,,,,,,,,,,,,,,,,,,,,,,,,,,
1781060974016287154,,,,,,,,,,,,,,,,,,,,,,,,,,,,,,
1781060974116216217,,,,,,,,,,,,,,,,,,,,,,,,,,,,,,
1781060974216212835,,,,,,,,,,,,,,,,,,,,,,,,,,,,,,
1781060974316313603,,,,,,,,,,,,,,,,,,,,,,,,,,,,,,
1781060974416272193,,,,,,,,,,,,,,,,,,,,,,,,,,,,,,
1781060974516330157,,,,,,,,,,,,,,,,,,,,,,,,,,,,,,
1781060974616383361,,,,,,,,,,,,,,,,,,,,,,,,,,,,,,
1781060974716460175,,,,,,,,,,,,,,,,,,,,,,,,,,,,,,
1781060974816323868,,,,,,,,,,,,,,,,,,,,,,,,,,,,,,
1781060974916324912,,,,,,,,,,,,,,,,,,,,,,,,,,,,,,
1781060975017676073,,,,,,,,,,,,,,,,,,,,,,,,,,,,,,
1781060975116374352,,,,,,,,,,,,,,,,,,,,,,,,,,,,,,
1781060975216298473,,,,,,,,,,,,,,,,,,,,,,,,,,,,,,
1781060975316522691,,,,,,,,,,,,,,,,,,,,,,,,,,,,,,
1781060975416380820,,,,,,,,,,,,,,,,,,,,,,,,,,,,,,
1781060975516190721,,,,,,,,,,,,,,,,,,,,,,,,,,,,,,
1781060975616720429,,,,,,,,,,,,,,,,,,,,,,,,,,,,,,
1781060975716341573,,,,,,,,,,,,,,,,,,,,,,,,,,,,,,
1781060975816494910,,,,,,,,,,,,,,,,,,,,,,,,,,,,,,
1781060975916239009,,,,,,,,,,,,,,,,,,,,,,,,,,,,,,
1781060976016295429,,,,,,,,,,,,,,,,,,,,,,,,,,,,,,
1781060976121696739,,,,,,,,,,,,,,,,,,,,,,,,,,,,,,
1781060976222377203,,,,,,,,,,,,,,,,,,,,,,,,,,,,,,
1781060976322697534,,,,,,,,,,,,,,,,,,,,,,,,,,,,,,
1781060976422612120,,,,,,,,,,,,,,,,,,,,,,,,,,,,,,
1781060976522957198,,,,,,,,,,,,,,,,,,,,,,,,,,,,,,
1781060976622115192,,,,,,,,,,,,,,,,,,,,,,,,,,,,,,
1781060976722476040,,,,,,,,,,,,,,,,,,,,,,,,,,,,,,
1781060976822354115,,,,,,,,,,,,,,,,,,,,,,,,,,,,,,
1781060976922422798,,,,,,,,,,,,,,,,,,,,,,,,,,,,,,
1781060977022558719,,,,,,,,,,,,,,,,,,,,,,,,,,,,,,
1781060977122480772,,,,,,,,,,,,,,,,,,,,,,,,,,,,,,
1781060977222293335,,,,,,,,,,,,,,,,,,,,,,,,,,,,,,
1781060977322444160,,,,,,,,,,,,,,,,,,,,,,,,,,,,,,
1781060977423731777,,,,,,,,,,,,,,,,,,,,,,,,,,,,,,
1781060977522426062,,,,,,,,,,,,,,,,,,,,,,,,,,,,,,
1781060977622139217,,,,,,,,,,,,,,,,,,,,,,,,,,,,,,
1781060977722538601,,,,,,,,,,,,,,,,,,,,,,,,,,,,,,
1781060977822858701,,,,,,,,,,,,,,,,,,,,,,,,,,,,,,
1781060977922327418,,,,,,,,,,,,,,,,,,,,,,,,,,,,,,
1781060978022226853,,,,,,,,,,,,,,,,,,,,,,,,,,,,,,
1781060978122524166,,,,,,,,,,,,,,,,,,,,,,,,,,,,,,
1781060978222251735,,,,,,,,,,,,,,,,,,,,,,,,,,,,,,
1781060978322589770,,,,,,,,,,,,,,,,,,,,,,,,,,,,,,
1781060978422881436,,,,,,,,,,,,,,,,,,,,,,,,,,,,,,
1781060978522580135,,,,,,,,,,,,,,,,,,,,,,,,,,,,,,
1781060978622187409,0.0005355872446564308,57.23166543894211,103.13036606982112,0.0012191251093897776,-0.018021249598180293,-0.0009748217943755216,-0.011289334315499071,0.9875514155304864,0.05384645407538268,-0.1217621174539962,0.1699354035842632,0.018346180558927217,1.0219777167149704,5.620523472256025,3.5561585049204276,0.08393012629661406,0.42567768837357817,0.032333169700909555,25.0,25.0,25.0,25.0,25.0,25.0,24.0,10.741,0.0,0.0,1.0,1781060978621999629
1781060978722664536,0.0001160923857621866,57.26382894961323,103.13139251480531,-0.0012134419790647652,-0.012578858604489028,-0.0004324409666769274,-0.0029592065967279373,0.09698308138206828,-0.01144715271459125,0.040278930930171465,0.030524055721742938,0.0030059034987271974,1.9475796301893784,5.819332217074757,1.4496695892796023,0.6703894497290463,0.3798384078581245,0.2062190846743512,25.0,25.0,25.0,25.0,25.0,25.0,24.0,10.473,0.0,0.0,1.0,1781060978718611764
1781060978822556525,-0.00022083352022639484,57.25968010753888,103.12823856580104,0.0005535446952032287,-0.012894561390166951,-0.000037212359507153074,-0.00018346570580829197,-0.07693936291746953,-0.021967909820649147,-0.11357524429795052,-0.011804008749681634,-0.002209292763430246,5.574191062086908,6.020962248084713,3.9281140427957575,0.3514832497669367,0.2890898366902623,0.1513521487813621,25.0,25.0,25.0,25.0,25.0,25.0,24.0,16.315,0.0,0.0,1.0,1781060978819589882
1781060978922057860,-0.0002699188343190703,57.25498066379662,103.12741389983243,-0.0004539420669847257,-0.014105255333345924,0.00013459414184067157,-0.0012035567099985748,-0.04507113722572955,-0.01554891625995332,0.18567592990414108,-0.011874110404013417,0.002451456642624266,7.537550787453312,5.829225696636556,1.5105943638219324,0.33284724700744434,0.3825468145725632,0.05624398807721017,25.0,25.0,25.0,25.0,25.0,25.0,24.0,15.649,0.0,0.0,1.0,1781060978919253429
1781060979022133697,-0.0002957277557036207,57.25237575768563,103.12710476676531,-0.001958073378314419,-0.014807048270025918,0.000258152869998814,0.002298591333339625,0.021636138570074785,0.02042205436894484,-0.10413822919796888,-0.0011859043893374891,-0.0043774601238221415,4.408299631284346,6.045026330459036,3.6659695889934736,0.374315844259571,0.2683186188874601,0.15076576822710103,25.0,25.0,25.0,25.0,25.0,25.0,24.0,14.913,0.0,0.0,1.0,1781060979020134405
1781060979122970173,-0.00030011922721841206,57.252843649766525,103.12723135737882,-0.0016049669865302611,-0.014741312025662064,0.0002676846248123213,0.00023953998566308187,0.0020901807173676367,-0.007103585073995928,0.1491516888362952,0.0006465142790810515,-0.0017038331029988732,5.21582255739956,5.842325941417253,1.8310383931401537,0.3639750982608677,0.37376368705957014,0.0824595468078967,25.0,25.0,25.0,25.0,25.0,25.0,24.0,13.709,0.0,0.0,1.0,1781060979119795310
1781060979222114187,-0.00028466561704474063,57.25360180109771,103.12796406303217,-0.0023884955831901637,-0.01511026496388443,0.0002752645772817516,0.004135600648625813,-0.0007783830988347973,0.02132365840492945,-0.0790934745996641,-0.010371256756145655,-0.005339578039811466,3.514663392750637,6.007250287346253,3.4629104436796,0.3812451148902686,0.27919483440475784,0.14666291256060815,25.0,25.0,25.0,25.0,25.0,25.0,24.0,13.792,0.0,0.0,1.0,1781060979220105590
1781060979322741987,-0.00014715724917545374,57.25496779768705,103.12883173311728,-0.0011282660129267115,-0.01522354474265448,0.00003905115157911206,-0.0011753228247352943,-0.008108295151555835,-0.012214057666414846,0.17624311258437264,-0.0005922654099032988,0.002100796742933771,6.26740934020711,5.863139522986697,1.766738998105277,0.3351570556898431,0.36368135128527057,0.06563692196995508,25.0,25.0,25.0,25.0,25.0,25.0,24.0,14.662,0.0,0.0,1.0,1781060979320679550
1781060979421963656,-0.0001399713069321995,57.2546637478261,103.12883889685804,-0.0018479656688047696,-0.015320494916182923,0.000022765916567830504,0.001016829466166282,-0.006093134481891018,0.004951888834779076,-0.16723370104496887,0.00013371504850848614,-0.002584534766618126,6.016669608283843,5.988790180699116,3.744594838073798,0.43934345895037713,0.2817872240324129,0.18296073072631416,25.0,25.0,25.0,25.0,25.0,25.0,24.0,16.654,0.0,0.0,1.0,1781060979421075392
1781060979522063602,-0.0001490183176145795,57.25595318183252,103.12881313452615,-0.0012452922410795349,-0.014786275239788284,-0.00004644508167801616,-0.0013385571049068332,-0.004865064198311372,-0.01798115415438145,0.16767084952560687,0.005072572284769993,0.0020923211305826166,6.059288549157981,5.813432051154143,1.639073185703832,0.37507632654823553,0.3832837809909624,0.08036111500244641,25.0,25.0,25.0,25.0,25.0,25.0,24.0,14.351,0.0,0.0,1.0,1781060979521751671
1781060979622505814,-0.0001401551207989803,57.25590943286503,103.12889400961004,-0.0012397664671279902,-0.01487753301109764,-0.0000390536082286036,-0.0015128173753401156,0.00963827414637682,-0.014281304584530105,0.17037335535698345,0.00877459691035487,0.0010948357505849156,6.321612366497594,5.833706283360372,1.6379749295487165,0.35799430955870265,0.3771435413661894,0.07284707575799712,25.0,25.0,25.0,25.0,25.0,25.0,24.0,14.601,0.0,0.0,1.0,1781060979608174711
1781060979722042049,-0.00015784862585001147,57.25556000208763,103.12853742137705,-0.001886764412958874,-0.01475029259992968,-0.00006529047797632866,0.00019545120706941733,-0.03977796788613686,-0.007580343531004947,-0.1395128924676068,-0.007286389601168967,-0.001333652592300067,5.206684698706425,6.019152471741722,3.753769097587304,0.38244860235002975,0.27387311328199904,0.15885100934271965,25.0,25.0,25.0,25.0,25.0,25.0,24.0,15.795,0.0,0.0,1.0,1781060979712687477
1781060979822297510,-0.0001702653362320611,57.25516798332006,103.12858882226644,-0.0012274164031657105,-0.014962635000870497,0.000017458100454552284,-0.0008158365722020899,0.011418584778186686,-0.004357140876211816,0.19623379428198148,0.0019544193099213496,0.002013981014139611,7.0657866461481955,5.832651114500713,1.6438975496870811,0.3221025500158101,0.37929777044523566,0.055841726842057605,25.0,25.0,25.0,25.0,25.0,25.0,24.0,15.3,0.0,0.0,1.0,1781060979815473923
1781060979922708915,-0.00015123606968103407,57.25559556543035,103.12877751087024,-0.0017766496779070167,-0.014898756504589557,-0.00002248014862769237,0.0008477819644696897,-0.014642111312993726,0.00397189102827623,-0.13355381909965022,-0.005448749993418979,-0.0030028788919187538,4.931914971533624,6.033277489954354,3.7082901756931177,0.3834729250784753,0.2674231582853859,0.15704784274188202,25.0,25.0,25.0,25.0,25.0,25.0,24.0,15.481,0.0,0.0,1.0,1781060979913228603
1781060980022762206,-0.00015254205743613365,57.25577576444726,103.1287848267316,-0.0013032291485461163,-0.01485680805162095,-0.000051970380174194546,-0.0003606175222116346,0.04760239612405091,0.00942970593152506,0.12788626902617087,0.009168213430519365,0.0005839529025060059,5.104566179338517,5.868913705839183,1.759572003900689,0.39210716538928514,0.3649252518122675,0.09225137896112191,25.0,25.0,25.0,25.0,25.0,25.0,24.0,13.582,0.0,0.0,1.0,1781060980012428740
1781060980122179935,-0.0001409842825012468,57.25633336717833,103.12893591376016,-0.0019283205473862627,-0.01468808408099032,-0.00007011554961599184,0.0003093991900345857,-0.04038063352940679,-0.006484979138016162,-0.16635897074492648,-0.008160746747320587,-0.0016829325392647347,6.193165611928882,6.010072681744413,3.84413845344101,0.41240144851246174,0.27323270852582426,0.17535468120875256,25.0,25.0,25.0,25.0,25.0,25.0,24.0,16.908,0.0,0.0,1.0,1781060980114145016
1781060980222333308,-0.0001339469335815668,57.25589033198226,103.12899438114329,-0.001241604100967698,-0.014953333662285233,4.851732424968238e-6,-0.0014985851265363215,-0.019733557331280824,-0.018785032122812177,0.1496967261464031,-0.0006395249264800909,0.0013671398322026432,5.299504422204028,5.836435692609367,1.7997384471277773,0.3736878120700836,0.3747758063469277,0.0850414555672828,25.0,25.0,25.0,25.0,25.0,25.0,24.0,13.769,0.0,0.0,1.0,1781060980214198631
1781060980322298674,-0.00010290009693509388,57.25669165326905,103.12943698480056,-0.0019038922778859815,-0.014920863466625687,-0.000022747308654645395,0.0012443739656569253,-0.018380057888340778,0.008325059733028125,-0.1636542273012768,-0.00910913240240196,-0.0011745352335971234,5.993370100042304,5.990175341388791,3.7268728297502034,0.42443509215990866,0.2815930804632672,0.17818704120543163,25.0,25.0,25.0,25.0,25.0,25.0,24.0,16.595,0.0,0.0,1.0,1781060980315009084
1781060980422266325,-0.000142329826020616,57.25527492989414,103.12888298935422,-0.001052739168002197,-0.01516651125433526,0.00002268527937952208,-0.0010703169455231927,0.007251926617903703,-0.008002490552357192,0.16747415119061146,0.0046138410090285275,0.0016228575032422009,6.35213536613826,5.92802258770632,1.7225125247236237,0.35577447798612,0.3496787190541776,0.071098825615601,25.0,25.0,25.0,25.0,25.0,25.0,24.0,14.779,0.0,0.0,1.0,1781060980415015912
1781060980523040518,-0.0001339063382250257,57.25629221384699,103.12899268148271,-0.0020851523975570193,-0.01474792425344906,-0.00006062918640131508,0.0013482459555971033,0.008009331226178328,0.014182136090562378,-0.18575618863036283,-0.0006835504745925329,-0.0029089831013464863,6.629600285907266,6.01266636395806,3.89909073326468,0.4305394698143218,0.2736901268026855,0.18480176964749964,25.0,25.0,25.0,25.0,25.0,25.0,24.0,17.43,0.0,0.0,1.0,1781060980516018322
1781060980622017086,-0.00014500996700668868,57.255880647862675,103.12875877086242,-0.0011959180051857982,-0.01478804042499671,-0.0000622402343316538,-0.00009953510719776472,0.02800652497555111,0.00570796593186407,0.17268053405189412,0.002750221964568585,0.00219455064747956,6.444587096617687,5.853631623010439,1.696958533643283,0.3501769786237486,0.36848404313873145,0.06889628809191796,25.0,25.0,25.0,25.0,25.0,25.0,24.0,14.783,0.0,0.0,1.0,1781060980617118283
1781060980722841912,-0.00012281573540271328,57.25665420788846,103.12914183991116,-0.0019961528821702433,-0.014701576261850875,-0.00006113784320663554,0.0013271227726189315,0.004356943349537687,0.016384098104502514,-0.16260008399116294,-0.005749804875154161,-0.0020820111161824477,6.100136060068866,6.037723954552581,3.8294050020074417,0.4160224051885716,0.26666550914488646,0.17605376291282848,25.0,25.0,25.0,25.0,25.0,25.0,24.0,16.826,0.0,0.0,1.0,1781060980717751775
1781060980822308041,-0.00012860992132724715,57.256410067019864,103.12904912740608,-0.0013493269117823405,-0.014776226238831664,-0.00005754558431566628,-0.0007146780186451898,0.007719934496146879,-0.0076252352678296415,0.1356007152838357,0.005198570270914879,0.001865673089759908,5.212631471630251,5.88865225580066,1.8001872113812027,0.381335563817465,0.3628685875575736,0.0882574808313698,25.0,25.0,25.0,25.0,25.0,25.0,24.0,13.734,0.0,0.0,1.0,1781060980818204174
1781060980922481291,-0.0001470364905409351,57.25606441547107,103.1289589689578,-0.0019388692780929655,-0.01481353868469944,-0.00002598276805860741,0.0015961810839747,-0.007458759858451446,0.011646002323755844,-0.14384753480344628,-0.008376947776216174,-0.002778446030847754,5.455365314826823,6.025235210044357,3.750525345651557,0.4072583817877069,0.270761502191826,0.16850833023974532,25.0,25.0,25.0,25.0,25.0,25.0,24.0,16.078,0.0,0.0,1.0,1781060980919384554
1781060981022796532,-0.00012886425380319305,57.256210964626526,103.12917704926303,-0.001135350828196383,-0.014972890508264784,-0.000018040184412791156,-0.0008994003574209279,-0.0035381414599619495,-0.01215710823726613,0.15602028453154898,0.0022110418881119906,0.001642504874864245,5.60587558782535,5.850759641103085,1.7941543491865592,0.3601899302333454,0.3691365344562664,0.07843949884784283,25.0,25.0,25.0,25.0,25.0,25.0,24.0,14.059,0.0,0.0,1.0,1781060981019981992
1781060981122828128,-0.00010509272559962553,57.25679758062518,103.12959278918468,-0.001908250555463443,-0.014986107077524284,-0.000010679032924161607,0.0013926624521156544,0.018314519651262177,0.012219063790642252,-0.2032936674411864,0.004709487635654331,-0.003852529196224901,7.477559433579805,6.046013672639289,3.9478612605279864,0.43913044126697953,0.2626905765010883,0.1938507155727318,25.0,25.0,25.0,25.0,25.0,25.0,24.0,18.367,0.0,0.0,1.0,1781060981120705142
1781060981221980221,-0.0000892271747198503,57.257777860081625,103.12981567279876,-0.0011208447447554472,-0.01478024940312891,-0.00005023598247451232,-0.0011307767756593334,0.008508370016010658,-0.009273097418269894,0.18610905301731423,0.004488051032997426,0.002109384482504602,6.7852298754449665,5.827782255425921,1.6373709661661588,0.33847337385332565,0.37838646906280304,0.06322644886892838,25.0,25.0,25.0,25.0,25.0,25.0,24.0,15.03,0.0,0.0,1.0,1781060981221822401
1781060981322547647,-0.00009935784510483902,57.25758299827382,103.12970724548984,-0.0010871885429537885,-0.014763862119272777,-0.000023803355748428487,-0.0015071471234919046,-0.010757572212135308,-0.01929393835312804,0.1867385139881925,0.0034485756407113335,0.001424248040207674,6.776888050552489,5.844830893995743,1.6246579518541997,0.3424698775686083,0.3744182884108622,0.06449529900181439,25.0,25.0,25.0,25.0,25.0,25.0,24.0,15.028,0.0,0.0,1.0,1781060981301993738
1781060981422581520,-0.00010089990865914,57.25716458595932,103.12952549854955,-0.001948408675554922,-0.014807086104967108,-0.00006660645318792233,0.0013259624451420651,0.006804574841423146,0.011733171272706946,-0.20867535790167305,0.0005439111146628138,-0.0026754128502211685,7.681491379492596,6.016151660444774,3.937470783824479,0.448961546873096,0.27219213750678184,0.1982279148275141,25.0,25.0,25.0,25.0,25.0,25.0,24.0,18.554,0.0,0.0,1.0,1781060981402788182
1781060981522496877,-0.00012335152375561625,57.25650363988538,103.12918726512954,-0.0011662819729642143,-0.014853581754409482,-0.00002956941097551941,-0.0018435597927929776,-0.025834211255643155,-0.02254057257303828,0.1685819142721039,0.0025176260087512417,0.003621372951137187,6.202608126675797,5.8228894294856826,1.7354252722461303,0.3418874545799687,0.376057567905848,0.0683692822839778,25.0,25.0,25.0,25.0,25.0,25.0,24.0,14.547,0.0,0.0,1.0,1781060981503370202
1781060981622618122,-0.0001117334789642904,57.25656086486872,103.12945878433378,-0.001946870079846496,-0.015001282328205051,-0.000015531667533976555,0.0022496950955959976,0.02360632864731244,0.025115846238772093,-0.18504462504208305,-0.0023600277668606876,-0.002066828516461089,6.900908059258169,6.022069389216357,3.8646556257416975,0.43162458915588625,0.2656561036127668,0.18694514767431383,25.0,25.0,25.0,25.0,25.0,25.0,24.0,17.672,0.0,0.0,1.0,1781060981603349980
1781060981722445674,-0.00009451794656448664,57.257844418990395,103.129792241323,-0.0012632492146229953,-0.014684605706342573,-0.00003454454551774662,-0.0012208337252398482,0.013208965666099215,-0.009664760290329533,0.18331231353949048,0.008069295828280542,0.0023180566863066016,6.827155289428295,5.825520759108208,1.6319142855458364,0.33757734865717903,0.37896687475353175,0.062537737386151,25.0,25.0,25.0,25.0,25.0,25.0,24.0,15.064,0.0,0.0,1.0,1781060981706438796
1781060981822864379,-0.00009133446462246191,57.257769941041126,103.12975726240484,-0.0018800142853164223,-0.014660887064591625,-0.000020672102086770797,0.0015647129689350823,0.0020245050481206514,0.01677416639879801,-0.14146108049075556,-0.007880777235822728,-0.0016430936819916589,5.327878607528237,6.02179596346786,3.700648593273096,0.40504054534612466,0.2715395920343339,0.166998625146659,25.0,25.0,25.0,25.0,25.0,25.0,24.0,15.894,0.0,0.0,1.0,1781060981804640589
1781060981922402414,-0.00005510151011802175,57.25897935825579,103.13043301909067,-0.001205973961952065,-0.014674172743294862,-0.000029047973981611524,-0.0015066228104914686,0.0049200515552025835,-0.010533583326350158,0.2086695181072239,0.004034048709121477,0.0025307637387729253,7.721612514065677,5.841979740982658,1.5487501721822088,0.312395749219724,0.37415885810236754,0.04803940017632593,25.0,25.0,25.0,25.0,25.0,25.0,24.0,15.847,0.0,0.0,1.0,1781060981907193966
1781060982022588940,-0.00006558984813813162,57.25825167094026,103.13017862302826,-0.0018947745481712912,-0.014821138261694462,-0.00001997008119813899,0.001296121687495053,0.010301689155266202,0.014431345588157295,-0.18272521602808384,-0.001067915672409962,-0.0023686301253886895,6.859240810919177,6.011318743189545,3.883358358618685,0.43487587298701713,0.2706411009400758,0.1875345036453437,25.0,25.0,25.0,25.0,25.0,25.0,24.0,17.647,0.0,0.0,1.0,1781060982006123576
1781060982122939484,-0.0000895572659742635,57.257888964573695,103.12979493722234,-0.0012315076628998049,-0.014697841801291044,-0.000016132317806607803,-0.0010977716770917455,0.011749079628465137,-0.011901331394700754,0.15318952463785168,0.009213408593931455,0.00129603026372231,5.665500973946443,5.918567712432846,1.7948976366048794,0.3605950403313265,0.34957459794566204,0.07817100223090148,25.0,25.0,25.0,25.0,25.0,25.0,24.0,14.167,0.0,0.0,1.0,1781060982106818108
1781060982222416092,-0.00009064159047346976,57.25796449223584,103.12977135046236,-0.0019973677996028127,-0.01464690357896151,-0.00008775473704907284,0.001132194092965878,0.006672299986969132,0.011418665275887249,-0.1581999373574231,-0.00013069862592635797,-0.0019293120113771465,5.778077055583899,5.99401808588337,3.803569025641145,0.411483278253933,0.27703724746051756,0.17249539674664618,25.0,25.0,25.0,25.0,25.0,25.0,24.0,16.437,0.0,0.0,1.0,1781060982208166140
1781060982322646230,-0.00013836723332416728,57.2565062642953,103.12921154849462,-0.0012457897862879297,-0.014840522131020818,-4.7582865860134865e-6,-0.0025354481574360425,-0.04372851024514527,-0.02722384753999983,0.18868595890827117,-0.006128844947829621,0.0022729751767650293,6.774168417480356,5.855388926576121,1.6731043906690042,0.32824605139364255,0.3779045166939091,0.06002251163276898,25.0,25.0,25.0,25.0,25.0,25.0,24.0,15.069,0.0,0.0,1.0,1781060982307911274
1781060982422414156,-0.00011043921100892708,57.25687301070052,103.12943264179658,-0.0019328439754280897,-0.014851842192417116,-0.000055365085902422656,0.0018070797335461265,0.018028913792514582,0.018335794989052384,-0.1889149169872966,0.00017155515043348592,-0.003078455131362904,6.987979186379642,6.039528619078956,3.888026292396898,0.42829299393846154,0.2644390828097485,0.1867977604842405,25.0,25.0,25.0,25.0,25.0,25.0,24.0,17.795,0.0,0.0,1.0,1781060982409174184
1781060982522551372,-0.0000954493466600923,57.257475197737655,103.12964049710878,-0.0011443527398397812,-0.014761319027960074,-0.000051841615619826465,-0.0010681565073857068,0.008257464380279632,-0.008199178095402777,0.2089096354241276,0.0035959307610655667,0.002839858713953082,7.6051011975220355,5.816833422939467,1.582538688171614,0.30770103019781536,0.3828015473417099,0.047483851465841304,25.0,25.0,25.0,25.0,25.0,25.0,24.0,15.742,0.0,0.0,1.0,1781060982510396989
1781060982622535979,-0.00008329841493620528,57.25773856979523,103.12985950964088,-0.0019127496031992948,-0.0147800570453858,-0.00004427933873971082,0.001042032973554693,-0.007683868372302277,0.008660035875123498,-0.17041007380741305,-0.004274052065635538,-0.0017443767226643346,6.265187172865259,5.987693350726576,3.7762322643150954,0.422111504956921,0.28176582758782365,0.1793190947406577,25.0,25.0,25.0,25.0,25.0,25.0,24.0,16.912,0.0,0.0,1.0,1781060982610739452
1781060982722131557,-0.00009377162386113004,57.2576175603153,103.1298477105989,-0.0011586781015677943,-0.01479744199937609,-5.2611628179244905e-6,0.00014572642790839412,0.03874275248642405,0.007996015288176544,0.150396164265992,0.005899717960252795,0.0006319959035458652,5.632688474696111,5.923162960973997,1.8138679877493231,0.3653309869098358,0.3458284051722112,0.0791895450208329,25.0,25.0,25.0,25.0,25.0,25.0,24.0,14.16,0.0,0.0,1.0,1781060982711640850
1781060982822281878,-0.00007773741808433498,57.25802338783535,103.12997925297353,-0.0019451541273961708,-0.014704448341596217,-0.00004190766238697627,0.0007638880290301681,-0.006773584289920321,0.0066517843478164935,-0.1599199408014903,-0.0029722557567640555,-0.0019963659652053843,5.879445056254913,5.9894358061760995,3.8045721310714664,0.4187031153313102,0.2783162417019647,0.17539931539074263,25.0,25.0,25.0,25.0,25.0,25.0,24.0,16.546,0.0,0.0,1.0,1781060982813105919
1781060982922250146,-0.0000909113393304129,57.25714081146432,103.1297867317164,-0.0012890271693670125,-0.01495556449578178,0.000027603189470989387,-0.003605989697073083,-0.051651233063347526,-0.03433503745939536,0.1757876470533789,-0.002874841197548054,0.0031739127237815187,6.466467921505974,5.868335210061148,1.7372317046718415,0.3281544779645794,0.36080276355561824,0.061786989492562026,25.0,25.0,25.0,25.0,25.0,25.0,24.0,14.823,0.0,0.0,1.0,1781060982914016635
1781060983022819639,-0.0000835620532740102,57.25722504160776,103.12979165019728,-0.0019051745676794975,-0.01494814597373321,-0.00001385751776645774,0.002130061537763501,0.026687606111733,0.027152229066914352,-0.1703828879716405,-0.004456007919778409,-0.0021167692024384272,6.3701263847606615,6.033448848549517,3.77725922365234,0.4318306473983782,0.26752880391264117,0.18344392361421472,25.0,25.0,25.0,25.0,25.0,25.0,24.0,17.064,0.0,0.0,1.0,1781060983015607544
1781060983122949661,-0.00009145298330174446,57.25730309482485,103.12973686634244,-0.001198884138598182,-0.01491122482283918,-0.000010947740610531983,-0.001545871390950024,-0.013829607264546956,-0.019179049641442937,0.20972398645072263,0.002342428237740361,0.0023988147412072284,7.646425335950014,5.852478391703437,1.6144442857937729,0.3025980556596576,0.3695048469515932,0.045271929322211926,25.0,25.0,25.0,25.0,25.0,25.0,24.0,15.831,0.0,0.0,1.0,1781060983115908019
1781060983222286956,-0.00010187746450489088,57.25707194998688,103.12959977790732,-0.0018975291459812408,-0.01488925782178083,-0.000030824914678418444,0.0011580648641064718,0.003265921796252066,0.01206190322024854,-0.13808465821139557,-0.0031448040324040753,-0.0021689695788858388,5.152349676935095,5.997114974523041,3.711411780449109,0.4050268180740786,0.2769265505650791,0.16550544106664458,25.0,25.0,25.0,25.0,25.0,25.0,24.0,15.708,0.0,0.0,1.0,1781060983216337903
1781060983322032988,-0.0001187165111744292,57.25687664610321,103.12936309037566,-0.0013169541906740095,-0.014792750034771504,-0.000029892885666276945,-0.0010500323467709574,-0.004028778143120936,-0.014146332038132342,0.16616316190850705,0.0032477566501887115,0.0014899850396321848,6.157583797703362,5.842876984679661,1.710211737136221,0.3469158343669209,0.3756536300990248,0.07034605397518508,25.0,25.0,25.0,25.0,25.0,25.0,24.0,14.504,0.0,0.0,1.0,1781060983318261053
1781060983422681085,-0.00011100500259054744,57.256617565768344,103.12930945606742,-0.0019035108732467245,-0.01486990320150941,-0.000056976618854406554,0.0012102533767831662,0.01591619694726731,0.016698794303703204,-0.1404010035454771,-0.0010808940092265444,-0.0018199008175917913,5.128211483322777,6.002426732918112,3.673708216304645,0.4042767498469416,0.276242486307721,0.16555077134795368,25.0,25.0,25.0,25.0,25.0,25.0,24.0,15.65,0.0,0.0,1.0,1781060983417709375
1781060983522654539,-0.00010143597898046066,57.25708165499182,103.1294779868354,-0.0012608125108635425,-0.014804917774969518,-0.00004513992652268241,-0.0006373879820553241,0.029455785191776388,-0.003817244396505618,0.20025510233587704,0.009463552234328631,0.0018128556313786297,7.448860615894417,5.834156254297439,1.5260649664542076,0.33280991019343087,0.38144449854048246,0.05688699070896033,25.0,25.0,25.0,25.0,25.0,25.0,24.0,15.58,0.0,0.0,1.0,1781060983518501477
1781060983622455791,-0.00012061508988866232,57.25651887910913,103.1293342119681,-0.0018221722952957535,-0.014945129780235142,-0.000028880714579351635,0.0015595644812138442,0.019345575878597303,0.01779104576242402,-0.12151233231752012,-0.0007996675194709296,-0.0017304137916936536,4.454089220627457,5.9920724957442655,3.602530059180262,0.38608041162291185,0.284219801372869,0.1551162324132008,25.0,25.0,25.0,25.0,25.0,25.0,24.0,14.874,0.0,0.0,1.0,1781060983619381700
1781060983722497686,-0.00010381556684015646,57.25721751615532,103.12952757215352,-0.001237438007964324,-0.014799657656512267,-0.00003564738767718109,-0.0022040134689333547,-0.024250350933188745,-0.024634618741804847,0.16305202842486383,0.002116853726132863,0.0020173849922455983,6.034302780008564,5.849795509232685,1.725685797403151,0.35096022204445376,0.37053857240130017,0.07243940826826095,25.0,25.0,25.0,25.0,25.0,25.0,24.0,14.404,0.0,0.0,1.0,1781060983720810237
1781060983821900387,-0.000094931432227453,57.2572896166151,103.12970300411487,-0.0018556388589072129,-0.014851123498477458,-0.000023834235922989812,0.0012109578495591124,0.002621358039467728,0.012929590087530772,-0.16204978791525287,-0.004245475191592333,-0.002565199766295576,6.009405275007659,6.007934796859381,3.776105228878411,0.42682554459719946,0.27504514264302127,0.17876103006120145,25.0,25.0,25.0,25.0,25.0,25.0,24.0,16.674,0.0,0.0,1.0,1781060983821602804
1781060983922373942,-0.00010107461102755368,57.257086750332014,103.12966143867844,-0.0019299080624434488,-0.014907265923042552,-0.000012320686174153752,0.0017437230779982478,0.009362991057543934,0.017944656301194732,-0.16569530451163134,-0.004294917293594321,-0.001969599485168144,6.100474109186726,6.003524362783486,3.79145740574662,0.4302717889937827,0.27667850022297286,0.1810326235401027,25.0,25.0,25.0,25.0,25.0,25.0,24.0,16.783,0.0,0.0,1.0,1781060983901725872
1781060984022485321,-0.00011700726007189386,57.256726909146394,103.12951420176368,-0.0010613065978104968,-0.01501431492599,-3.5707794791637924e-6,-0.0010511384487758527,0.010084200750129117,-0.0059983198067735,0.17186222292308792,0.004009656365897846,0.0022992081245242287,6.419656476721394,5.903298507211507,1.7761644850552407,0.3333139051694783,0.34907376165388027,0.06307515936986999,25.0,25.0,25.0,25.0,25.0,25.0,24.0,14.845,0.0,0.0,1.0,1781060984003455095
1781060984122636086,-0.00009969908093864432,57.2568681728729,103.12966302802398,-0.0018438230390702957,-0.015039486839412634,-0.0000106219388868603,0.0013195030430286948,0.01402746004769806,0.014896690800445854,-0.1693459065833049,-0.0001465612623513051,-0.0028677583340011885,6.232957486024954,6.009382093386865,3.7911190866692936,0.44309464001006504,0.27046111947402185,0.18599104520566395,25.0,25.0,25.0,25.0,25.0,25.0,24.0,16.933,0.0,0.0,1.0,1781060984102597624
1781060984222549566,-0.00009666920805701872,57.257498876223806,103.12972971723784,-0.001131261171118448,-0.014816434275290115,-0.000016047671065969673,-0.001766828750673107,-0.017159440712993492,-0.020111864648030817,0.2004168006231926,0.0010103729460173184,0.002926151602217644,7.324070045912064,5.8397272380368594,1.612300877445491,0.3152518492875724,0.37718338053942585,0.05196377562695688,25.0,25.0,25.0,25.0,25.0,25.0,24.0,15.52,0.0,0.0,1.0,1781060984203024321
1781060984322514587,-0.00010009507469517313,57.257089137195344,103.129648586834,-0.0017750150296009294,-0.01494548407750419,-0.00003428891956631494,0.0008197267802785602,0.002084833515268221,0.007089864951220644,-0.15769812566448102,0.00014505421429976135,-0.0024293617752516317,5.884390168988111,6.04342837313253,3.770363183576352,0.41899319407599767,0.2634401961722074,0.17552392922622073,25.0,25.0,25.0,25.0,25.0,25.0,24.0,16.556,0.0,0.0,1.0,1781060984303985402
1781060984422365962,-0.00012154627849077144,57.256643260329774,103.1293005137114,-0.0010534106067235692,-0.014912283205920836,-0.000037022538128657864,-0.0007853177269992134,0.009651580749289028,-0.009862217415296585,0.1914309655114582,0.0060258685035706585,0.001722479962702016,6.867910755250759,5.85766127915415,1.647821601982401,0.33338105895108294,0.36823093714429567,0.0608010920620017,25.0,25.0,25.0,25.0,25.0,25.0,24.0,15.136,0.0,0.0,1.0,1781060984408713401
1781060984522404797,-0.0001213512524993096,57.256874024314634,103.12946026234955,-0.001977779977886197,-0.014862210713246372,-0.000014930585718635546,0.001734880009473851,0.015992435177911272,0.018940504195633548,-0.21698283466967905,0.0009521298139926682,-0.0018077765947596464,8.04161959289689,6.0263035880695135,3.9776849798485263,0.47227206366034286,0.26424396783367365,0.2080525940747363,25.0,25.0,25.0,25.0,25.0,25.0,24.0,18.99,0.0,0.0,1.0,1781060984507729215
1781060984622489126,-0.00012027323419661652,57.25665447450072,103.12931942865318,-0.0011425802497649592,-0.014913024889536866,-0.00003548592899757759,-0.0007862872039581757,0.008021411561935145,-0.010417379949782618,0.16236129988580733,0.006257929869631437,0.0014929521291739275,5.782709933782812,5.81123187091239,1.744445346917528,0.35449503756882256,0.3834100479444974,0.07570997627037342,25.0,25.0,25.0,25.0,25.0,25.0,24.0,14.152,0.0,0.0,1.0,1781060984608250660
1781060984722411290,-0.0000884669934580165,57.25767488571808,103.1297752532301,-0.0017921237220648268,-0.014774959582763416,-0.00007278417523940505,0.0012836768755232076,-0.005323730103907597,0.009731228041442766,-0.15909078562136753,-0.004695599036084817,-0.002573389166502387,5.856740824727207,6.027416608004978,3.8037666465421895,0.3989515471615438,0.26790617622730845,0.16872579437405108,25.0,25.0,25.0,25.0,25.0,25.0,24.0,16.524,0.0,0.0,1.0,1781060984706705744
1781060984822238918,-0.00010992658418374876,57.25730595053712,103.12961325435712,-0.0011807129956364986,-0.01480104977617587,-0.00002814135560823476,-0.0016973721976200871,-0.015101908096301618,-0.014543793609034806,0.13422824885344165,0.0009362859216875162,0.003277988470659008,5.141754381476684,5.900794146076727,1.8830839750626016,0.36321008223611406,0.35352544621569804,0.0825159844283806,25.0,25.0,25.0,25.0,25.0,25.0,24.0,13.725,0.0,0.0,1.0,1781060984807026312
1781060984922353610,-0.00008418282571257507,57.25761883288477,103.12985095125978,-0.001696436654962044,-0.014828666290027609,-0.00005827366971449075,0.0006941950132676827,-0.029041805888133775,0.0004037169622100792,-0.14243481818881243,-0.008338084247115482,-0.0016461016815330382,5.1010915537254835,5.99693331366951,3.634319054969509,0.40874936491121666,0.2825793972723622,0.1667419516358754,25.0,25.0,25.0,25.0,25.0,25.0,24.0,15.59,0.0,0.0,1.0,1781060984909921275
1781060985022718719,-0.00016633637174052996,57.25748516210789,103.12952577170444,-0.0013820352762579423,-0.014751661751365858,0.00004782567241165638,0.00017227083411931857,0.0188042501470265,-0.0022174088773697863,0.17237276916134192,0.004748585244600625,-0.0014245846183674365,5.99066514556288,5.8416349366914915,1.71696343438218,0.357497541436872,0.3747886341320488,0.07495827693814348,25.0,25.0,25.0,25.0,25.0,25.0,24.0,14.357,0.0,0.0,1.0,1781060985007970485
1781060985122424696,-0.00009288730444777124,57.258251375174495,103.12993415060484,-0.0019151676549559896,-0.01465720149924054,-0.0000633731315518383,0.002584271056918927,0.021358759313412978,0.021482639715168696,-0.21091297198131892,0.000838504973165793,-0.003989590266627651,7.888156146401411,6.008302092184174,4.061538428434355,0.4419019317995674,0.26819523218743246,0.19671033181851152,25.0,25.0,25.0,25.0,25.0,25.0,24.0,18.865,0.0,0.0,1.0,1781060985109553119
1781060985222471633,-0.00010957117315029476,57.25779435514892,103.12960551333326,-0.000994277148816941,-0.014653577032570851,-0.00007034950117043741,-0.002342078795601271,-0.016694794280113664,-0.018820050820730422,0.17520957780211682,-0.00005446297519596194,0.002613493862744205,6.457281966951521,5.8323876613943,1.6801980632016462,0.34345666393296975,0.3746808906300049,0.06708433230721285,25.0,25.0,25.0,25.0,25.0,25.0,24.0,14.755,0.0,0.0,1.0,1781060985209709442
1781060985322550333,-0.00009794310351220362,57.2576508575182,103.12959991190914,-0.0016933913580872246,-0.014697505246188382,-0.00009019540351343584,0.001033998251109029,-0.011997363182955271,0.007125802831051595,-0.15893603861527283,-0.005818148115480593,-0.0013823785102801344,5.944311821646956,6.0264120052175185,3.7855924423922622,0.41857048784373874,0.27055522760011896,0.17614769945564568,25.0,25.0,25.0,25.0,25.0,25.0,24.0,16.622,0.0,0.0,1.0,1781060985310021317
1781060985422713486,-0.00009063707341650086,57.2585863251831,103.12986248437788,-0.001059555186895381,-0.014506227009680194,-0.00007845315267912005,-0.0005306514046017068,0.022371396932671084,-0.002867281163522858,0.17893082050387055,0.005943225196543513,0.001539790736489395,6.569712490691927,5.80659499745107,1.6035484854788409,0.35565853070995024,0.3857205359001505,0.07052588732157508,25.0,25.0,25.0,25.0,25.0,25.0,24.0,14.792,0.0,0.0,1.0,1781060985411346089
1781060985522783232,-0.00010652433581688724,57.257835912171146,103.12966695470774,-0.0017051734320062916,-0.014635996763482984,-0.00003528555260568252,0.0012070818713459102,-0.0004458555818644813,0.010757932302386027,-0.1666350354159288,-0.0008082120959628803,-0.0009629522650030594,6.127226016806782,6.035674587589611,3.8158596809627223,0.4268782549958365,0.2660882295121806,0.1800882731040555,25.0,25.0,25.0,25.0,25.0,25.0,24.0,16.852,0.0,0.0,1.0,1781060985512214055
1781060985622305059,-0.00008420265872155794,57.258688261142254,103.1299199046283,-0.0010362336987302112,-0.01444982205649078,-0.000054381281063299926,-0.0004885650018724067,0.02312902416532562,-0.004419903016855216,0.1533271266581996,0.007900017003911158,0.0017548435215611123,5.653079421865115,5.905259108229063,1.7503256139991004,0.3843099008344174,0.35089801122202147,0.08576273809567726,25.0,25.0,25.0,25.0,25.0,25.0,24.0,14.13,0.0,0.0,1.0,1781060985613901155
1781060985722430546,-0.00008172285387724456,57.258210819188776,103.12997134779152,-0.0017544108312805683,-0.014700460329430749,-0.00005725269535201435,0.0014605294079052763,-0.006592947484013726,0.01066954661817016,-0.19748343900418644,-0.0040641030898146005,-0.00232088657342648,7.252231646553357,6.02577127278114,3.877704592027126,0.4358574924740505,0.27005032654109323,0.19083110462269803,25.0,25.0,25.0,25.0,25.0,25.0,24.0,18.052,0.0,0.0,1.0,1781060985713850817
1781060985822126314,-0.00010482112350025952,57.25711306998033,103.12968941471138,-0.0011150650222656387,-0.014993124192639077,-0.000022529928394588532,-0.0019392117277321928,-0.03108063647622419,-0.021184376582193166,0.1758802784076279,-0.005127902474939636,0.0024508706684608886,6.371489071973496,5.870450759466606,1.7840750377802266,0.31389978806707736,0.3596780992880055,0.05774255235241754,25.0,25.0,25.0,25.0,25.0,25.0,24.0,14.757,0.0,0.0,1.0,1781060985813797658
1781060985922896138,-0.00006175972580163573,57.258565966889,103.13021612362112,-0.001977200354965049,-0.014670930301308914,-0.00005027848060490487,0.0015402507905501117,0.009335584463308053,0.014014494578948666,-0.22399195561158164,0.0006990115064301765,-0.003343107151909891,8.226113970669239,6.012056500076561,4.007089723250352,0.4661611675319527,0.2721247237635268,0.20736205767587,25.0,25.0,25.0,25.0,25.0,25.0,24.0,19.191,0.0,0.0,1.0,1781060985914762963
1781060986022801716,-0.0001002659905019968,57.25761637197077,103.12972978823592,-0.001215399351881558,-0.014801762115728046,-0.000019779988851056256,-0.0004144135177572682,0.012090102349752156,-0.006068781390352599,0.1718243806746817,0.005277145089288474,0.001647154741660387,6.424994694834796,5.883870711121419,1.729025155978108,0.336064767044391,0.3585253448783821,0.06473144978833062,25.0,25.0,25.0,25.0,25.0,25.0,24.0,14.797,0.0,0.0,1.0,1781060986015890918
1781060986123233319,-0.000107264208937113,57.25749887844296,103.12966240612464,-0.0018263840748302131,-0.014704443690904668,-6.397888495127813e-6,0.0010598518702835463,-0.01727276253257126,0.0048051877609395525,-0.14550826914055753,-0.00621975171613489,-0.0015107717301833905,5.41084489942164,5.9967409909963285,3.710818750021701,0.39663842176620834,0.28218626189947854,0.16496709708914525,25.0,25.0,25.0,25.0,25.0,25.0,24.0,15.962,0.0,0.0,1.0,1781060986116215739
1781060986222890258,-0.000087901929616874,57.257775370750885,103.1297937463492,-0.0010705097125652413,-0.014770986090734236,-0.00004400040533576563,-0.0008004468072983947,0.0014808923197610424,-0.012474523630338689,0.17619214072615536,0.003905353589077564,0.0013955092475221695,6.42904436379581,5.857230369744535,1.7093115934890553,0.33916203958693447,0.3666976198919813,0.06582512881510036,25.0,25.0,25.0,25.0,25.0,25.0,24.0,14.767,0.0,0.0,1.0,1781060986216966511
1781060986322936443,-0.00011053749923584318,57.25757572992663,103.1295906638202,-0.0017121140534063384,-0.014713310311533376,-0.00006844784142227339,0.0015371204685994942,0.00985903854488153,0.016583018213562093,-0.13714870280059432,-0.003068532584441336,-0.0019462243426066489,5.240369132117647,6.0638089741825025,3.805251265825457,0.37053701501579567,0.2582034447994118,0.15507260945985624,25.0,25.0,25.0,25.0,25.0,25.0,24.0,15.893,0.0,0.0,1.0,1781060986317818302
1781060986422860317,-0.00009729264505243542,57.25788909309261,103.12964233422468,-0.0010409589304666263,-0.014619485339069153,-0.0000758743196109519,-0.0011233705825866272,0.0011294714097058313,-0.013440647382661567,0.1837244650441184,0.004294653649724604,0.001656627641397834,6.734463700657645,5.839489804006159,1.647652309568208,0.33882763698119583,0.37163574216281126,0.063648055444257,25.0,25.0,25.0,25.0,25.0,25.0,24.0,14.996,0.0,0.0,1.0,1781060986418895128
1781060986522877587,-0.00009664206002491882,57.25818328343321,103.12974384189503,-0.0019257820102068196,-0.01451414556393775,-0.00006986109594130736,0.0013319160121346874,-0.0005148090670673757,0.009558339082301227,-0.2188838063265257,-0.000998980159080185,-0.0031288692141856105,8.15027592146573,5.995973221713343,4.017065404958554,0.4648061110766328,0.2730044029780215,0.20603342577865008,25.0,25.0,25.0,25.0,25.0,25.0,24.0,19.107,0.0,0.0,1.0,1781060986520748981
1781060986621973489,-0.00013886149233386443,57.25769738056605,103.12929823406132,-0.00093834137177114,-0.014480038153496012,-0.00006051956123088346,-0.0022784042093961757,-0.008298137847481058,-0.01677445457632204,0.19453107947006804,0.003899174960364852,0.0038597639780737327,7.266176432224556,5.825909532438991,1.5456286792430451,0.33102896173403246,0.3815269933885343,0.05716433186390047,25.0,25.0,25.0,25.0,25.0,25.0,24.0,15.407,0.0,0.0,1.0,1781060986621016304
1781060986721940976,-0.00014780929964197862,57.25688116075535,103.12903103868436,-0.0015962963032134952,-0.014659806236264646,-0.00004727906229403497,0.0021796753760058244,0.02590405286543847,0.024717833154410822,-0.16853199122559806,-0.0012981944875586886,-0.0025401431895155104,6.370554555127711,6.031694269257634,3.845956700008341,0.4186888303567647,0.2624749844101076,0.1788389518909522,25.0,25.0,25.0,25.0,25.0,25.0,24.0,17.108,0.0,0.0,1.0,1781060986721374744
1781060986821926842,-0.00011938426313232216,57.25742051746693,103.12953504215426,-0.0008720066146279357,-0.014805781483026604,-0.000015484137760584068,-0.0010659934700424803,-0.004144582963396711,-0.006029373232949541,0.1538875185347454,-0.0014563058112927291,0.002712170161515178,6.106679522775516,5.8606974290076455,1.7571129222970794,0.3427828117576973,0.3662828067108396,0.06868534574290783,25.0,25.0,25.0,25.0,25.0,25.0,24.0,14.502,0.0,0.0,1.0,1781060986821709937
1781060986922532017,-0.00011887727013076126,57.25736611598253,103.1294471152717,-0.0011252321514211838,-0.014752275025188312,-0.00004365303490477614,-0.0025491030862741073,-0.028964844460519924,-0.028803937866255454,0.11384219843401668,0.0033248493689941355,0.0011356625128772775,4.425529782679395,5.842287125838142,1.8295547908810776,0.4011343252206237,0.3695821841133433,0.10022480955962626,25.0,25.0,25.0,25.0,25.0,25.0,24.0,12.968,0.0,0.0,1.0,1781060986902151399
1781060987022666877,-0.0001438742762349053,57.257872757940525,103.12956918207942,-0.002018025262136703,-0.01461589948036065,0.000016286168541766185,0.002710954010081032,0.016951439592196776,0.020625919764238183,-0.17670631780242263,-0.0005179209529631466,-0.004425350205567665,6.826362063147993,6.0508644483183724,3.9481173646684646,0.4349445910633069,0.2610786158486867,0.18743325158831683,25.0,25.0,25.0,25.0,25.0,25.0,24.0,17.709,0.0,0.0,1.0,1781060987002903561
1781060987122425658,-0.00017350514041187707,57.25760317686899,103.12932048006785,-0.0013429133064316206,-0.014542739294609804,0.00009155231340017916,0.00026230317942657443,0.002213747730299069,-0.010447493054545622,0.1875483935831705,0.0033617108823440953,-0.001239882206087119,6.57369637332799,5.820025965414277,1.6271333582175955,0.3429086562015131,0.38182634591211967,0.06607814268429245,25.0,25.0,25.0,25.0,25.0,25.0,24.0,14.812,0.0,0.0,1.0,1781060987107328583
1781060987222587732,-0.0001825863312177905,57.257266353898125,103.12926059913164,-0.0022313620455040495,-0.01460328630469022,0.00011171412135260924,0.004292816387270721,0.05832893268463834,0.041532434557067344,-0.20387592130366405,0.005280443156807054,-0.00595016396179172,8.219093654505855,6.070230170305267,4.063802197195329,0.4430225728359242,0.2486698792605362,0.199979561269186,25.0,25.0,25.0,25.0,25.0,25.0,24.0,19.245,0.0,0.0,1.0,1781060987205436551
1781060987322508329,-0.000123794284675204,57.25800435692229,103.1295054420506,-0.001042362573379258,-0.014471101810061416,-2.400544018003384e-6,-0.001364312659213277,-0.013958115566430037,-0.013322604622731288,0.1478799570526777,-0.0017052367463796516,0.0022917953620105102,5.724066379028847,5.843795657574672,1.7206208478777991,0.3670409116532667,0.3834154800867242,0.0797961270605096,25.0,25.0,25.0,25.0,25.0,25.0,24.0,14.119,0.0,0.0,1.0,1781060987306211877
1781060987422699838,-0.00009444691837560446,57.25870146096878,103.12979337457304,-0.00178452320085788,-0.014327507272770783,-0.000042591528911121056,0.0021704985099755656,0.04368874509478815,0.03419579948695414,-0.17402928763941705,0.0011829841595015391,-0.001498360945592927,6.679846353241799,6.053156675040222,3.937343027179105,0.4248752053618368,0.25940613873043583,0.1832106319804401,25.0,25.0,25.0,25.0,25.0,25.0,24.0,17.538,0.0,0.0,1.0,1781060987407229715
1781060987522982562,-0.00013131794472772394,57.25753524473251,103.12937541290567,-0.0011190112868236385,-0.01455811114510171,-0.000020998362234195396,-0.0020573362575622466,-0.01499283215088646,-0.01937179180943695,0.17053063668350968,0.0030058223171440662,0.0030772135195124978,6.337120222498697,5.812628188032617,1.6425574256857352,0.3485307997061651,0.38591168074573035,0.06982267637594308,25.0,25.0,25.0,25.0,25.0,25.0,24.0,14.597,0.0,0.0,1.0,1781060987512622631
1781060987622564926,-0.00012081949414712168,57.25734339740136,103.12947101827626,-0.001821570512522482,-0.014689378642861552,-0.000027585829602194485,0.001750510773673965,0.011045501201155716,0.01665773414105611,-0.1756764459211818,-0.0016038468334879047,-0.0030721757262003237,6.5392280898210835,6.050047556840801,3.929802211726885,0.4070075916072482,0.25950449223741034,0.1763717238152654,25.0,25.0,25.0,25.0,25.0,25.0,24.0,17.362,0.0,0.0,1.0,1781060987606284005
1781060987722409240,-0.0001076880971962518,57.25804798673519,103.12954892840057,-0.0011554599564904749,-0.014435656467111264,-0.000027686681396127743,-0.0012968611302391318,-0.009766789398067,-0.015707089870193917,0.14148889640986026,0.0018612177576092504,0.0014686977001805964,5.379787469160558,5.85382045071082,1.7759315616387985,0.3710078344892234,0.3684170842521221,0.08351169028671693,25.0,25.0,25.0,25.0,25.0,25.0,24.0,13.832,0.0,0.0,1.0,1781060987706920078
1781060987822437174,-0.0000929614291024511,57.25804133205647,103.1296981017646,-0.0017863015653085748,-0.01455792639724697,-0.00004549265271709852,0.001009213659896396,-0.009939759459574465,0.008085088762643307,-0.1608080583811849,-0.0056866993740086755,-0.0018436297814833195,6.059924864546859,6.026514611647296,3.785603862899583,0.4225208024416001,0.2694932795090876,0.17790715001977758,25.0,25.0,25.0,25.0,25.0,25.0,24.0,16.742,0.0,0.0,1.0,1781060987807370123
1781060987922404980,-0.00011410987711872132,57.25823430957719,103.12965113545432,-0.0010645271469333889,-0.01450961941645643,-0.000093514172561088,-0.0024136048346983245,-0.008806169780095569,-0.018053791631692212,0.20862876908555048,0.0010431575200308288,0.0021891443521324964,7.552968597312534,5.803305422562753,1.4301208231306313,0.34403641113404126,0.3939020645124328,0.06010463049510868,25.0,25.0,25.0,25.0,25.0,25.0,24.0,15.584,0.0,0.0,1.0,1781060987908163272
1781060988022433673,-0.00011690381002947644,57.257873642716206,103.129669040791,-0.0019425078642412484,-0.014597182402776446,-0.000015607074948161384,0.0018657162448843705,-0.0010849950348270645,0.011364769704411196,-0.161927183068082,-0.00401602304392629,-0.0035147036191502203,6.348357220293782,6.0621994643121235,3.891171673451822,0.4154019292266941,0.25684383320285875,0.1775743316697348,25.0,25.0,25.0,25.0,25.0,25.0,24.0,17.152,0.0,0.0,1.0,1781060988008354373
1781060988122519208,-0.00009912284226622492,57.25755655392172,103.12951113533344,-0.0011332462904323237,-0.014645336360208754,-0.00006796931024940588,-0.0013519751033873454,-0.0007952590716613488,-0.013604617357702594,0.20113331878585347,0.003372255035972114,0.002518029764907007,7.553924107676671,5.828354700460196,1.5574666267747292,0.31108548420369425,0.3820391428999044,0.048969121582542935,25.0,25.0,25.0,25.0,25.0,25.0,24.0,15.682,0.0,0.0,1.0,1781060988109355604
1781060988222695750,-0.00006371383091354983,57.25841729051106,103.13009952977468,-0.002060806707258656,-0.014667486717424433,-0.00007725406336888835,0.0028847468402549395,0.027193111525133946,0.03006151926961733,-0.19042312895817304,-0.00522476072749786,-0.002650545419034398,7.09544105303391,6.016134818430118,3.897622370985984,0.4516356246329922,0.27224617955234004,0.1948841482101222,25.0,25.0,25.0,25.0,25.0,25.0,24.0,17.928,0.0,0.0,1.0,1781060988210254985
1781060988322538988,-0.00007856945157926485,57.25803548602871,103.12996480855354,-0.0011780881335964038,-0.014777946433985825,-0.0000493642316362979,-0.001398011975657355,-0.01468095609663054,-0.019579562069191057,0.18145136889518904,0.0018379507730609207,0.0019191498897350684,6.750217939423769,5.890656616961634,1.6535854104884948,0.3347495874663001,0.3602765700131723,0.06216030672075869,25.0,25.0,25.0,25.0,25.0,25.0,24.0,15.052,0.0,0.0,1.0,1781060988311294458
1781060988422520512,-0.00004012178368080972,57.258917071138455,103.13041488317792,-0.0021455148920173205,-0.014714819840993256,-0.00008856524015405311,0.0018094927006147927,-0.00010028462351792676,0.0132901995136348,-0.20863264056993153,-0.0032427233118990104,-0.0032509421636038017,7.555948240651198,6.0068674294366975,4.00152051195827,0.4594138650833215,0.27242354230569443,0.2001627774400204,25.0,25.0,25.0,25.0,25.0,25.0,24.0,18.496,0.0,0.0,1.0,1781060988412236294
1781060988522518744,-0.00006504719175362794,57.25866364017426,103.13014882796617,-0.001357264618567536,-0.014629179358636212,-0.0000622412342700727,-0.00216650337602394,-0.018481343847223112,-0.025246678503330365,0.19364508951050563,0.004575405334935611,0.003089894098230698,7.141346762461739,5.824799025332963,1.5661716847991658,0.32192652921000037,0.3778946524950951,0.05541762664749819,25.0,25.0,25.0,25.0,25.0,25.0,24.0,15.288,0.0,0.0,1.0,1781060988512966145
1781060988622874135,-0.000055743489763322974,57.25850950757439,103.13023944187816,-0.002076735816177864,-0.014768526068130543,-0.00007809952409158771,0.0020154508029209886,0.007037014964984807,0.014944992877524549,-0.19426153946202207,-0.0021153830596439757,-0.002525926702662288,7.274437521587474,5.985871622300907,3.9581113171238385,0.44941811194798575,0.2721262405303581,0.1947599726819492,25.0,25.0,25.0,25.0,25.0,25.0,24.0,18.135,0.0,0.0,1.0,1781060988613566566
1781060988722330672,-0.00007382798451567559,57.25800799524516,103.1299078087441,-0.00139461614836929,-0.014779867612240462,-0.0000907185541238982,-0.001876097249419833,0.01770416604731959,-0.009368515999342956,0.17789658409931072,0.008287883069362956,0.002255252217887633,6.596777770300476,5.862506044331668,1.6654804964801018,0.3359114937332489,0.36517331981038453,0.06369061234013763,25.0,25.0,25.0,25.0,25.0,25.0,24.0,14.89,0.0,0.0,1.0,1781060988714271044
1781060988822529502,-0.00007248740047868545,57.25821220475756,103.12998111735897,-0.002200117498024721,-0.014687819383978562,-0.00008795878316675432,0.0007702376350480031,-0.016436065825017686,0.0031830390044661028,-0.18080429115988292,-0.0020082030722278275,-0.000624264402415692,6.666202014060862,5.981214509954793,3.8239598663031793,0.43563340517926896,0.2834264134403269,0.1864067290405441,25.0,25.0,25.0,25.0,25.0,25.0,24.0,17.377,0.0,0.0,1.0,1781060988815328237
1781060988922752262,-0.00008220480469062239,57.25757545993983,103.12974629035476,-0.0013805883944290082,-0.01484653008615916,-0.0000773245125708132,-0.0016575904922796968,-0.009132699699401607,-0.01648945507040244,0.15549859743007252,0.003615127177938299,0.0012466289363672796,5.843943644908137,5.892203144085141,1.863450401391982,0.32004317263539545,0.34523119908856886,0.06312451110343743,25.0,25.0,25.0,25.0,25.0,25.0,24.0,14.328,0.0,0.0,1.0,1781060988916329543
1781060989022488040,-0.00008242027809597495,57.25797629997766,103.12976343915176,-0.002370717859529049,-0.01462236662882966,-0.0001178695757802068,0.0016917294072002211,-0.007858167754782543,0.008828042355799287,-0.20333739234031867,-0.003567998508526826,-0.00308617261683147,7.475571993637361,6.035572123218057,4.01188923041155,0.4476706782085572,0.25916578007450286,0.19573396363292245,25.0,25.0,25.0,25.0,25.0,25.0,24.0,18.426,0.0,0.0,1.0,1781060989017456737
1781060989122072390,-0.0001000554482178076,57.25751059816436,103.12941156473129,-0.0014662259595225,-0.014598090099673208,-0.00009909953869793524,-0.0017235142789515402,-0.001888247082243662,-0.015373166106971358,0.14187520126913575,0.0050739793500424145,0.0015994422853246133,5.300226964710806,5.846407681054022,1.7409712317117332,0.3795420929345391,0.3732943736320525,0.0867506919995557,25.0,25.0,25.0,25.0,25.0,25.0,24.0,13.727,0.0,0.0,1.0,1781060989118316739
1781060989222157501,-0.00009826801212090826,57.2574638229796,103.12939349118132,-0.0021459216161876463,-0.014615817064343796,-0.0001022462244053366,0.002540911416997317,0.02936979817412575,0.024374650977498,-0.1926868907641032,0.0005526585213224227,-0.002541067108235107,7.255277226120596,6.034110401364635,3.9618947555921777,0.43662222006493256,0.26244062635877935,0.191043190180367,25.0,25.0,25.0,25.0,25.0,25.0,24.0,18.141,0.0,0.0,1.0,1781060989219205712
1781060989322886728,-0.00008207947601486079,57.25819644148391,103.12974502575904,-0.001502369753709576,-0.014643560061723042,-0.00013116009553118695,-0.0031462795985459473,-0.03045678616315238,-0.029486864419778124,0.18904947712280515,0.0008022427874966938,0.001992335868329064,7.018099346969003,5.816488073198126,1.5708810386033838,0.32571765255117224,0.3847075277169013,0.05758208328832024,25.0,25.0,25.0,25.0,25.0,25.0,24.0,15.173,0.0,0.0,1.0,1781060989319889672
1781060989422636419,-0.00007492056180880295,57.25791589637693,103.12978636611302,-0.0021664424792225377,-0.0147720957665065,-0.0001159841605279799,0.002310462425914137,0.020137714191606933,0.02207628185937327,-0.16872856688602622,-0.0024300902676417336,-0.002928654484190395,6.355683874379977,6.054644073718162,3.882264488957225,0.4291592313439306,0.25707594983586424,0.18196957109670756,25.0,25.0,25.0,25.0,25.0,25.0,24.0,17.161,0.0,0.0,1.0,1781060989420696021
1781060989521975172,-0.00006256524879762592,57.258596042041745,103.12999945781576,-0.001480014619283673,-0.014640791186825037,-0.00011747437295192876,-0.002049657231373959,-0.014583769247771805,-0.017513557990123205,0.2276357521667304,-0.0009376620258511851,0.0030039129285314753,8.477149786875527,5.788980617733125,1.4379926262420817,0.28515196180943675,0.3955147511847443,0.034160907957359765,25.0,25.0,25.0,25.0,25.0,25.0,24.0,16.419,0.0,0.0,1.0,1781060989521535360
1781060989622647848,-0.00004281240004334298,57.258782429795275,103.13027744531206,-0.0022250266552121044,-0.014764651709116186,-0.00011856912376324952,0.002913754370928373,0.03710439263001844,0.02966816057394738,-0.21684379950856375,0.0014063990657250515,-0.0028213655167235153,8.08706840478382,6.015823829566777,3.9991078365039896,0.4807270712400784,0.2657003199681313,0.21094919404889412,25.0,25.0,25.0,25.0,25.0,25.0,24.0,19.059,0.0,0.0,1.0,1781060989622545018
1781060989722617160,-0.00005759284487686489,57.258494778503504,103.13006174247204,-0.002120641326592784,-0.014724927151790612,-0.00011721570057111433,0.002051673282970247,0.012627804992102216,0.016925200270090944,-0.16794381773747136,-0.0016773519305735688,-0.0024979794901025774,6.308571436634223,6.033964884394839,3.865270334775085,0.4142242806004639,0.26224858467539724,0.1769310260422171,25.0,25.0,25.0,25.0,25.0,25.0,24.0,17.061,0.0,0.0,1.0,1781060989705740819
1781060989822814411,-0.00005714487139808827,57.25918542944727,103.13015568996212,-0.0015935817623044628,-0.014426676854252193,-0.00007908079418609941,-0.0014947249193261465,0.022799792892955712,-0.009359194049928068,0.18450679570475484,0.011466448964784466,0.0016045805704647806,7.063824376562537,5.8059588214458255,1.5285497812010904,0.34071182794216315,0.389139092087678,0.06221424254153976,25.0,25.0,25.0,25.0,25.0,25.0,24.0,15.19,0.0,0.0,1.0,1781060989806199138
1781060989922605565,-0.000030459236980858644,57.260267420084176,103.130556152893,-0.0024198468731234076,-0.014196205629573569,-0.00010040876580903464,0.0018454509871125852,0.00683896769559601,0.0166126851028903,-0.1666913021645248,-0.003791915278649098,-0.002196943521092619,6.1698602914657625,6.054588555316889,3.8797048010374104,0.4164848070488877,0.2587969881092306,0.17650387004527454,25.0,25.0,25.0,25.0,25.0,25.0,24.0,16.956,0.0,0.0,1.0,1781060989903457116
1781060990022487213,-0.00009564958580742476,57.25860008706819,103.12966313095048,-0.001444156593427664,-0.014306601116307568,-0.00003674983713494249,-0.002075428980388575,-0.039749535178543655,-0.027125285931190356,0.15803861228332566,-0.002682801719724201,0.002165903435398359,5.825720558629075,5.8771996914468705,1.8000849039559454,0.3425829834722564,0.36646010395202006,0.07067829030644916,25.0,25.0,25.0,25.0,25.0,25.0,24.0,14.283,0.0,0.0,1.0,1781060990003524523
1781060990122374303,-0.00007933858985122562,57.25845513777967,103.12979486154336,-0.0025239218746191784,-0.014460255150131563,-0.0001004489070047813,0.001760042635729886,-0.013564541786671417,0.011153810341262166,-0.15298376568471725,-0.009999100782180926,-0.0019667037132340406,5.954098496759541,5.990329980402742,3.772199184242196,0.42233597892970626,0.2815723599724044,0.17709089173428383,25.0,25.0,25.0,25.0,25.0,25.0,24.0,16.598,0.0,0.0,1.0,1781060990104506346
1781060990222522227,-0.00008014363225662633,57.258350375084845,103.12981883115108,-0.001841666262178886,-0.01452863893454296,-0.00008571689337823522,-0.0011428981934847168,0.022061645174090032,-0.004597858204330356,0.15625948066747666,0.008178130779963563,0.002037925713820184,5.69511791489347,5.899668452291374,1.7067400250888525,0.3818874192476608,0.36118221450546745,0.08504773196238025,25.0,25.0,25.0,25.0,25.0,25.0,24.0,14.13,0.0,0.0,1.0,1781060990206154304
1781060990322566083,-0.000046012506714006955,57.258976729193584,103.13021847751904,-0.003031155684721054,-0.014501856542361555,-0.00011124165815877882,0.0022085544768938293,0.012372339324080625,0.019128077703056377,-0.241709518626979,-0.0010387637153896957,-0.003389796627917579,8.331224683588246,6.028108241691709,4.107008706869592,0.4556434558891164,0.2558664507890021,0.20422592100304848,25.0,25.0,25.0,25.0,25.0,25.0,24.0,19.382,0.0,0.0,1.0,1781060990309710761
1781060990422459011,-0.00009537110490256104,57.25745158879531,103.12952563092782,-0.002067541309299166,-0.014691266725299091,-0.0000785983672564575,-0.0024363525327815183,0.005639128613289859,-0.015830664853616252,0.14442358130087332,0.012512964060792747,0.004283923843504432,5.085658634159694,5.951694032026574,1.8511475768514545,0.3790908323497268,0.3379636315314732,0.08835421880172184,25.0,25.0,25.0,25.0,25.0,25.0,24.0,13.694,0.0,0.0,1.0,1781060990406082013
1781060990522600623,-0.00007725275783216827,57.25750879465304,103.12975352088762,-0.0024565211230567737,-0.014857202709913604,-0.00007883294390568658,0.002022664150725721,0.020365799227125895,0.019601624724482007,-0.1620162973999219,-0.0003872735981279928,-0.0025980950421800302,5.936061662168911,6.031089619790672,3.841830694715555,0.4162747266587457,0.26303463674397143,0.17468988812188666,25.0,25.0,25.0,25.0,25.0,25.0,24.0,16.663,0.0,0.0,1.0,1781060990507165137
1781060990622487901,-0.00008920947007493787,57.25763871891315,103.12956706524812,-0.0019312219591920185,-0.01466313298975074,-0.00009288410541396835,-0.0009338884118062368,0.02284732664286328,-0.002762978702993334,0.16294155377564462,0.006928901954391816,0.0017867949572727222,5.830286619873662,5.923615895167156,1.7673842283859749,0.366177019870054,0.3479895162745602,0.07863071264966719,25.0,25.0,25.0,25.0,25.0,25.0,24.0,14.314,0.0,0.0,1.0,1781060990608369743
1781060990722618886,-0.00009486304445120424,57.25722981577127,103.12953842452023,-0.002554335383186112,-0.014803679467540012,-0.0000827294346743938,0.003659868653892153,0.0587585409290016,0.04218360609946549,-0.23311973709731673,0.0030581555627315197,-0.003303434835864687,8.076460302423875,6.0485698755642945,4.057444109571099,0.4439073888070171,0.2554219911980627,0.1992098100041343,25.0,25.0,25.0,25.0,25.0,25.0,24.0,19.081,0.0,0.0,1.0,1781060990709114135
1781060990822446744,-0.00006842078926412542,57.25808498981927,103.12987269451278,-0.001888495459008896,-0.01464565499088384,-0.00008684613661625282,-0.0017888565029742303,0.005490069367783643,-0.01518141677394668,0.26391904324043347,0.004987462852435446,0.003618767790451475,9.422457728060392,5.811878179953731,1.30534193753695,0.2811117851326366,0.3952424445635081,0.02676128715024225,25.0,25.0,25.0,25.0,25.0,25.0,24.0,17.243,0.0,0.0,1.0,1781060990809905538
1781060990922346223,-0.000030111431679608916,57.25886759046272,103.13042253342984,-0.003056265089128367,-0.0146696272742405,-0.0001077992362056299,0.002480564215502654,0.04078389000013521,0.029278066992553888,-0.21384712248452,0.0030957011713779376,-0.002489184029039535,7.581091063908052,6.003954944904615,4.047068663923993,0.4511115308879249,0.26356953624135,0.1977793098717995,25.0,25.0,25.0,25.0,25.0,25.0,24.0,18.545,0.0,0.0,1.0,1781060990911096865
1781060991022155291,-0.00006674490905800313,57.25804719782636,103.12991654935313,-0.0018234365997175065,-0.01470145365752432,-0.00005726425961135817,-0.001914008173697767,-0.007295186805582241,-0.022222319526278744,0.1364276668596862,0.01006132828313832,0.0019996165481659016,5.14766431953283,5.857644388431019,1.756069784768105,0.38466549302475833,0.3696453820332711,0.08981105587931351,25.0,25.0,25.0,25.0,25.0,25.0,24.0,13.606,0.0,0.0,1.0,1781060991011593314
1781060991122111720,-0.00005747288031295152,57.2582726336048,103.12998834388236,-0.002492099543716481,-0.014637658537353965,-0.0000840619113160231,0.0021146152408925175,0.02512523786430513,0.027968734249474627,-0.13396237360237506,-0.005886465996325868,-0.0020927914318332247,5.0093799409346955,6.044262866446266,3.812003537816157,0.37404585120750494,0.25954693583492633,0.1541933724971607,25.0,25.0,25.0,25.0,25.0,25.0,24.0,15.653,0.0,0.0,1.0,1781060991112715399
1781060991222686606,-0.0000595604272226339,57.25854671533713,103.12998607631812,-0.0022207555788373245,-0.014500399560039729,-0.00009869727786204366,-0.003048499266497174,-0.04850622022413973,-0.04059937631742662,0.193004361379083,0.002744075352767244,0.002625578730308721,6.85295235975356,5.8007853062701065,1.558713671487691,0.339989943397187,0.3892663091466715,0.06348185247304691,25.0,25.0,25.0,25.0,25.0,25.0,24.0,15.005,0.0,0.0,1.0,1781060991213308012
1781060991322943427,-0.00007327773686601726,57.25768596838643,103.12973214610363,-0.002437939437483124,-0.01469130516039787,-0.00008600239504233319,0.0018493798180540576,0.015361149477082956,0.022731058446506403,-0.13608371401110628,-0.005866551208100346,-0.002197850056207038,4.9776193601893315,6.041597995775536,3.778483409147692,0.3760113640710011,0.261485574632884,0.15471554489135098,25.0,25.0,25.0,25.0,25.0,25.0,24.0,15.59,0.0,0.0,1.0,1781060991317056118
1781060991422435513,-0.00009813643208416846,57.257225447825256,103.12931315831015,-0.0019321772844769236,-0.014592874051999228,-0.00008395668129040213,-0.00270050323989734,-0.05121633654141465,-0.036982684942713465,0.14425207026859146,0.000297147792511449,0.0023964848302148413,5.1669555384908605,5.8266860505861136,1.7448586675482087,0.38181214556418686,0.3814478953288976,0.08883619096374873,25.0,25.0,25.0,25.0,25.0,25.0,24.0,13.591,0.0,0.0,1.0,1781060991414432602
1781060991522691507,-0.00006280062553800596,57.25827931511708,103.12991810904806,-0.0028160927845043834,-0.014548675295099522,-0.00009298170848982444,0.0023472688340522917,0.012927436805010128,0.026070091616101913,-0.19355726869489295,-0.008978640944072079,-0.0022325367216044357,7.353890437372409,5.979415283791517,3.885190732650036,0.464703616021078,0.2817003842919628,0.2006290982435215,25.0,25.0,25.0,25.0,25.0,25.0,24.0,18.166,0.0,0.0,1.0,1781060991515959833
1781060991622556976,-0.00008419486902991322,57.2578889309636,103.12962680602276,-0.0019949741507552963,-0.014507311987738206,-0.000061034723764771184,-0.002780947613055725,-0.04207249333054582,-0.03499691928975606,0.17922810988648907,0.0032633854504347743,0.0033720510425002807,6.705796578966514,5.817330851241633,1.5934432037483064,0.34424546490616825,0.3866655292900422,0.06587403041250268,25.0,25.0,25.0,25.0,25.0,25.0,24.0,14.913,0.0,0.0,1.0,1781060991616301632
1781060991722395381,-0.00006709328749492154,57.25835489171489,103.1298779791125,-0.002821806203615855,-0.014495014186420746,-0.0000908458270711101,0.0022650248509226622,0.03205106032810428,0.025978444371195227,-0.22122626683906516,0.0030162904912385915,-0.0024372665265781942,7.709008827239743,6.01744021174319,4.026114613260513,0.4523613526855754,0.26358665367539325,0.1988920335103255,25.0,25.0,25.0,25.0,25.0,25.0,24.0,18.667,0.0,0.0,1.0,1781060991717336027
1781060991822912661,-0.00009553064582422334,57.25766181196946,103.12942190355172,-0.0018015292139392256,-0.014511964578094694,-0.0000742210088899704,-0.0028690145199443576,-0.05066097530632224,-0.03718235121375664,0.17924321766144952,-0.0006418569123734701,0.002688307927880073,6.428548416932395,5.822879078398801,1.6337331325075142,0.3389388669267788,0.38394638916410423,0.06613094136755354,25.0,25.0,25.0,25.0,25.0,25.0,24.0,14.674,0.0,0.0,1.0,1781060991817781877
1781060991922910866,-0.00007124357953562603,57.25846228314604,103.1298659503562,-0.0029438967191165203,-0.014431795190705633,-0.00009639671345357054,0.002483310175059312,0.030778596255027334,0.028553348589018018,-0.21332334832297956,-0.001093125371284779,-0.0028984909881753637,7.6649032655193325,6.044616253204866,4.080408378697124,0.4390245304219589,0.25183981740161754,0.19415942671276468,25.0,25.0,25.0,25.0,25.0,25.0,24.0,18.675,0.0,0.0,1.0,1781060991919094821
1781060992022824451,-0.00006395096814267723,57.258773755582034,103.1300513987604,-0.0020433511713686724,-0.014455693517250148,-0.00007069728726240942,-0.001756315801850027,-0.01010999329433153,-0.017283749452914204,0.20041663477179375,0.0020879601167155025,0.002120149717988807,7.559990560272317,5.838547052870581,1.533745168491514,0.3304142547331142,0.3796629660838961,0.05492823209897136,25.0,25.0,25.0,25.0,25.0,25.0,24.0,15.697,0.0,0.0,1.0,1781060992019863380
1781060992121959145,-0.00006663664269983423,57.258312988513595,103.12994182625016,-0.002618657055643403,-0.014579679794906613,-0.00006354153915925763,0.0026900492005932403,0.04015991726551463,0.03456872188801843,-0.1922236171327303,-0.002047094809599806,-0.002356032622034348,7.057152354713129,6.0117405622211555,3.960675319520792,0.448534748704756,0.2661634590507048,0.193012496017604,25.0,25.0,25.0,25.0,25.0,25.0,24.0,17.937,0.0,0.0,1.0,1781060992121274034
1781060992221968792,-0.00008023788058049578,57.25767690777218,103.12975731522252,-0.0016689593075656394,-0.014743764384555134,-0.00001955169293570835,-0.002828367505537922,-0.06895398240092526,-0.04049105675451635,0.15499441783322238,-0.005736092223512012,0.002334172623762804,5.7079246346046935,5.8449847956088785,1.8135796183467616,0.3359612307440227,0.37338674236118674,0.06973643138000814,25.0,25.0,25.0,25.0,25.0,25.0,24.0,14.146,0.0,0.0,1.0,1781060992221403917
1781060992321974969,-0.00005830292250579366,57.25840926586555,103.1300960379622,-0.0023434126917857303,-0.014660419140211966,-0.0000366346986154204,0.0018574487845452097,0.017154006598677024,0.022665971299254375,-0.13682069966842828,-0.006192390220163027,-0.001724267950947177,5.547168290106476,6.027147564786634,3.789286840454098,0.40633353413125367,0.26250924363057626,0.16895164064558055,25.0,25.0,25.0,25.0,25.0,25.0,24.0,16.201,0.0,0.0,1.0,1781060992321737235
1781060992422097076,-0.00006868978267505371,57.25819798875485,103.12994785780684,-0.001764036101490505,-0.014650960356791152,-0.00002631641697856602,-0.003674460325271707,-0.07920802477951594,-0.052354873956791566,0.1687210732110915,-0.0008117992293483251,0.0031524181163163347,6.243183674932858,5.828984851598291,1.661126215472053,0.3488378990465847,0.384942104111318,0.07066181585314814,25.0,25.0,25.0,25.0,25.0,25.0,24.0,14.538,0.0,0.0,1.0,1781060992421950715
1781060992522237582,-0.00005921257133492356,57.25868217861108,103.13015356623906,-0.0019932489564979615,-0.014564309764487167,-0.000047243554742615066,-0.0018932054352399216,0.0002297159684290682,-0.020698564126098492,0.19025059426168128,0.009446081478594425,0.0010958856004727206,7.402201567606058,5.8365790313379025,1.5120029597540667,0.33656112103852664,0.3817252173435448,0.05822494039765437,25.0,25.0,25.0,25.0,25.0,25.0,24.0,15.527,0.0,0.0,1.0,1781060992503139087
1781060992622261142,-0.00005131142953536564,57.2590389677195,103.13019938616983,-0.003000815584944279,-0.014426416334480448,-0.00007997032315342186,0.002485067847495628,0.0321962366284601,0.029192907517101737,-0.21212206625226537,-0.0011448737789787123,-0.002296532295567653,7.988644095048454,5.993581856061416,3.998018834401876,0.47829490396568775,0.26505408578313866,0.20917707469999688,25.0,25.0,25.0,25.0,25.0,25.0,24.0,18.933,0.0,0.0,1.0,1781060992609321934
1781060992722239775,-0.00007929276748660419,57.25809297835363,103.12976359694576,-0.0018246203189696132,-0.014573099202587292,-0.00007272621170902838,-0.001159167398962252,0.0029236837231346982,-0.010139171967310654,0.15553316937201395,0.004178285326581783,0.0014269011640791584,6.027623643320598,5.857246941802453,1.665812797425656,0.372446475613392,0.3738855888939596,0.07939679027010171,25.0,25.0,25.0,25.0,25.0,25.0,24.0,14.376,0.0,0.0,1.0,1781060992709422392
1781060992822472322,-0.00007937026384845812,57.257887559458766,103.12971334347264,-0.0024709738718562556,-0.014592315454465104,-0.00006992105241341006,0.0016368795354759246,0.011974870438011523,0.019131342264756084,-0.13576591688661596,-0.005211637939406101,-0.0018263134248600232,5.303015686927023,6.0164638727545485,3.7733822727054696,0.39017312170812,0.2676491852507232,0.16186315276028815,25.0,25.0,25.0,25.0,25.0,25.0,24.0,15.913,0.0,0.0,1.0,1781060992809932645
1781060992922179039,-0.00008805365487740672,57.25792128966892,103.12960723618878,-0.0020046369338923365,-0.014502293340352067,-0.00006762361867786165,-0.002242494845540468,-0.03177013768459176,-0.02940528001366336,0.1574348091436838,0.0023708019542369426,0.001958040338804986,5.64762419654203,5.841851765756246,1.6928238988895212,0.3726713158018246,0.3794252098827391,0.08235760188429714,25.0,25.0,25.0,25.0,25.0,25.0,24.0,14.017,0.0,0.0,1.0,1781060992910571877
1781060993022390210,-0.00006617611736162928,57.25856207553095,103.1299752847594,-0.0026209605171613973,-0.014471622001207891,-0.00005232736791712192,0.0021845812896760003,0.025770112568287703,0.025299632677755233,-0.17768880672288165,-0.002855984176604962,-0.003085184180357946,6.417632701881384,6.044069385658707,3.900639267465776,0.41371685639883704,0.25565467343432063,0.17736270334508236,25.0,25.0,25.0,25.0,25.0,25.0,24.0,17.209,0.0,0.0,1.0,1781060993006171338
1781060993122775951,-0.00008591936454914196,57.257851190459704,103.12965171327356,-0.0020464557631441724,-0.01458201436440437,-0.0000560683574523575,-0.0031089931290112977,-0.07224125792406828,-0.04436152903894979,0.18097081163197415,-0.005360304515952452,0.0024845075077325044,6.148387200595708,5.87589485211353,1.6598536541898816,0.36022667879276177,0.3718019824431747,0.07552291845873094,25.0,25.0,25.0,25.0,25.0,25.0,24.0,14.492,0.0,0.0,1.0,1781060993111133293
1781060993222984578,-0.0000956846926215604,57.25668045225256,103.12939717571034,-0.002614933944189657,-0.01490314897140939,-0.00007584964910814279,0.0014721677253097937,0.003544773318780566,0.01567271538351154,-0.13864196596990025,-0.005854903603270566,-0.0022211907105383947,5.160899320201412,5.978221635840444,3.7443840329020257,0.3862487492094141,0.2789820104353241,0.1593224287374905,25.0,25.0,25.0,25.0,25.0,25.0,24.0,15.708,0.0,0.0,1.0,1781060993212504892
1781060993322365405,-0.00008664771752733324,57.257232363504976,103.12964583364548,-0.002276360845102549,-0.01482348944829899,-0.00005534561148076125,-0.002267866870034304,-0.019482093085001203,-0.026907758469922077,0.2110510477328937,0.003934182011767427,0.002540591182962223,7.430665699343153,5.8526879384921715,1.5478263291981964,0.32699292245117995,0.3783140924192393,0.05549703755399152,25.0,25.0,25.0,25.0,25.0,25.0,24.0,15.592,0.0,0.0,1.0,1781060993310893180
1781060993422827946,-0.00007816770935836321,57.257947446621074,103.12975469516724,-0.0029492764060463704,-0.014568406862218167,-0.00007973582512600655,0.0019553449524280834,0.020088903663915372,0.020855083078807745,-0.18916916211579823,-0.0011904332631275205,-0.002568202975256124,6.97288653687546,6.033555028526519,3.945942043826227,0.43357654422197145,0.25815159858374304,0.1877137548220189,25.0,25.0,25.0,25.0,25.0,25.0,24.0,17.832,0.0,0.0,1.0,1781060993411355385
1781060993522195096,-0.00010141229118784056,57.257489884123245,103.1294874121854,-0.001784155915157248,-0.01459917731701134,-0.00003229861774884093,-0.0018680195630579452,-0.02023604831218585,-0.023786575061329935,0.16611345139460787,0.00309188836895632,0.0011949974409201593,6.238610221170447,5.840277098095237,1.6408456321585283,0.3482786674463863,0.3798452450575124,0.07027636780674146,25.0,25.0,25.0,25.0,25.0,25.0,24.0,14.518,0.0,0.0,1.0,1781060993514219270
1781060993622657921,-0.00005377051059846081,57.25877287984769,103.13021524899226,-0.0028403901033141384,-0.01454689730892139,-0.0000685208975617941,0.001590134252704886,0.011246404345476352,0.018205454990578723,-0.16699499179575855,-0.002173598324252713,-0.001312690529266334,6.178735942166035,6.03439200824861,3.9146933109927335,0.40461612840579975,0.25751954036571745,0.1725901018258782,25.0,25.0,25.0,25.0,25.0,25.0,24.0,16.963,0.0,0.0,1.0,1781060993612533603
1781060993722020914,-0.00005981687516239897,57.25863421506483,103.13013940970338,-0.0019319368027608977,-0.014593366737474302,-0.00004313791359376389,-0.0028452082705764277,-0.053428705404478104,-0.04024959869598957,0.1668943068468038,0.0005787883726345345,0.002487676433312974,6.0556365475874765,5.814017694831233,1.631662637980625,0.3577365359394843,0.3916088121592928,0.07512562793853926,25.0,25.0,25.0,25.0,25.0,25.0,24.0,14.326,0.0,0.0,1.0,1781060993712331321
1781060993822277249,-0.00005342869470330344,57.25881696147855,103.1302334185948,-0.0028708763472685924,-0.014523432643312338,-0.000056388767765822214,0.001998294039997059,0.03217775105137578,0.02299448402119265,-0.18017359743489356,0.0023081946223092085,-0.0027249871188114692,6.693430626709273,6.074175692821658,3.969787058712426,0.4092716885354011,0.24258911781773945,0.1778079573392389,25.0,25.0,25.0,25.0,25.0,25.0,24.0,17.567,0.0,0.0,1.0,1781060993812266911
1781060993922380995,-0.00007710432219678027,57.25806165430452,103.1298717928879,-0.001663521458425554,-0.014654875149029278,-0.000034449317684415214,-0.002188944604705536,-0.03189131655111007,-0.027036411381104603,0.18138240121417867,0.000058596679423347965,0.0018125537287577355,6.820263354488544,5.843650463664844,1.6225386335185352,0.3294854817723594,0.38437348685356815,0.06023377999769953,25.0,25.0,25.0,25.0,25.0,25.0,24.0,15.061,0.0,0.0,1.0,1781060993913117098
1781060994023104178,-0.00007372074064446204,57.258305413700214,103.12991514369428,-0.0025183159324661496,-0.014529166765585192,-0.000039839206987007784,0.0014810643734277417,0.01860881302368738,0.019765551537322183,-0.13444536053755454,0.00007462207257957437,0.00029945261860219943,5.323681186573951,6.003868756587647,3.774557847053352,0.39645286869882,0.26723062616473015,0.16406154289944647,25.0,25.0,25.0,25.0,25.0,25.0,24.0,15.93,0.0,0.0,1.0,1781060994014880865
1781060994122455688,-0.0000720944704211685,57.25852725374601,103.12996575974392,-0.002020291737105714,-0.014491014273235998,-0.00006535196138986128,-0.002174298040275064,-0.014953633256090277,-0.02395906315127801,0.19052197523301168,0.005182772438310848,0.0014027440336645016,7.33179645129878,5.8221743703615045,1.5419843940256643,0.327258341866286,0.3880838995319568,0.05581932834867238,25.0,25.0,25.0,25.0,25.0,25.0,24.0,15.467,0.0,0.0,1.0,1781060994116325031
1781060994222194825,-0.00008388928026807964,57.25803272993613,103.12970113608276,-0.0026103255630183144,-0.014506246261519556,-0.00006885744808290061,0.001285416732128991,-0.002799970949823114,0.010859355987973903,-0.1570932943606133,-0.005137546173024222,-0.0018906581486644355,6.280151796198199,5.998962357469187,3.8536640287146886,0.41763213431847046,0.2688484474301594,0.17738853718590508,25.0,25.0,25.0,25.0,25.0,25.0,24.0,16.997,0.0,0.0,1.0,1781060994216286694
1781060994322457242,-0.00009082699749586392,57.257877687887174,103.12962857480224,-0.0018953484909515672,-0.014541240772492876,-0.0000675017946217595,-0.0014204865233690112,0.009883347124331513,-0.012724477812250484,0.1825785913080449,0.008220309661999468,0.0021414806637170968,6.74992930691198,5.89144463092098,1.611745995680032,0.339937483581167,0.36289117904863544,0.06400489088256855,25.0,25.0,25.0,25.0,25.0,25.0,24.0,15.02,0.0,0.0,1.0,1781060994317386630
1781060994422550881,-0.00007347888414484065,57.25835689106894,103.12987679697385,-0.00286715402112989,-0.014459943152943078,-0.00007360540229313409,0.0028636343675799703,0.04987684034820512,0.03715000051134303,-0.19936431049522504,0.0010308630429600176,-0.002494850333901683,7.185452308221104,6.0108963907579955,3.9263137623641544,0.44506110306513913,0.26644465119514543,0.19305508411205768,25.0,25.0,25.0,25.0,25.0,25.0,24.0,18.027,0.0,0.0,1.0,1781060994417572397
1781060994522322201,-0.00008434831903288557,57.25794535538829,103.1297179969892,-0.0018859226707962397,-0.014577555376952989,-0.00006434197390541013,-0.001567989906753212,-0.0030231340132216207,-0.01696819710400546,0.15184893839632993,0.006822626586063317,0.0011818212904755804,5.829347744653511,5.866593205263289,1.7183394611649137,0.3596890009045339,0.36713630960986854,0.07669215954119066,25.0,25.0,25.0,25.0,25.0,25.0,24.0,14.218,0.0,0.0,1.0,1781060994518085508
1781060994623088545,-0.00007037728538945574,57.25815341522068,103.1299077557056,-0.002636034545916756,-0.014594319422622808,-0.00006570144827607591,0.0031263778455000177,0.05718293057395472,0.04062413046917883,-0.22418101712741675,0.002618748634924569,-0.002968899386377892,7.82688940537412,6.038748733951973,3.9612502803966025,0.4804826335451256,0.25584127383509714,0.20884854386149604,25.0,25.0,25.0,25.0,25.0,25.0,24.0,18.772,0.0,0.0,1.0,1781060994620184110
1781060994722787627,-0.00006954945653114621,57.25869017255838,103.1300417038926,-0.002018980971071066,-0.014457905208214992,-0.00005298323109555592,-0.003204313015494884,-0.04980789388171394,-0.043914749293219195,0.2090724874831522,0.003060225200230486,0.0031296309775305955,7.502110257199444,5.7878004159418905,1.4642010324645862,0.33126041170347587,0.4005952408515544,0.05653447825167494,25.0,25.0,25.0,25.0,25.0,25.0,24.0,15.543,0.0,0.0,1.0,1781060994719877063
1781060994822840984,-0.00005952544710185196,57.258292146633416,103.13013939290356,-0.00235342131334773,-0.01473583217804814,-0.00004113676977765214,0.0024912631418716803,0.03334056961280983,0.03141106313325239,-0.17908627366400656,-0.0026742343145269,-0.0012645033531322298,6.993569284845971,6.024026076955066,3.88370233246275,0.4510098480587363,0.2601958754779785,0.1939965384064287,25.0,25.0,25.0,25.0,25.0,25.0,24.0,17.806,0.0,0.0,1.0,1781060994820738825
1781060994922664279,-0.00005988859387482792,57.258756144986506,103.13018882833248,-0.0018876606256519656,-0.014553536182190383,-0.000053537837778123214,-0.001654600554165667,-0.0101925250203038,-0.017212331181278576,0.18537247821403263,0.002003498974229846,0.002185262285051,6.707163058312171,5.904592685454183,1.655413863748184,0.3488502010174476,0.35826234649705085,0.0667720861180284,25.0,25.0,25.0,25.0,25.0,25.0,24.0,15.041,0.0,0.0,1.0,1781060994920777385
1781060995022214181,-0.00006011565180915941,57.258376678063506,103.13012888892784,-0.002588598206878304,-0.0146615345898662,-0.00006197951488044649,0.0024634803541854883,0.03470422752694131,0.03007632621301509,-0.19784326770734176,-0.00022061455098123863,-0.002743136304695437,6.956799398069271,6.017246453589672,3.933392026669192,0.44318409245132406,0.262021944581146,0.1904219622669915,25.0,25.0,25.0,25.0,25.0,25.0,24.0,17.803,0.0,0.0,1.0,1781060995022065928
1781060995122514923,-0.0000613811085250271,57.25832022163181,103.1301045089905,-0.002457215626361841,-0.01468113742134893,-0.00005929904903019064,0.0022159700597050246,0.02738971042375482,0.026604530562602865,-0.17553486755973527,-0.0023380976985592963,-0.0026341275238792395,6.213168797694435,6.0616109982463025,3.8893529318574296,0.4082424711061128,0.25218787580529056,0.1740915119210578,25.0,25.0,25.0,25.0,25.0,25.0,24.0,16.999,0.0,0.0,1.0,1781060995103178783
1781060995222354973,-0.00010085583205660208,57.25751257798083,103.12953659270632,-0.0017861046703991149,-0.014667624313385075,-0.000055204680282787115,-0.004867968917151709,-0.09014897595530744,-0.056793714495320606,0.13093987101621984,-0.003658879850420338,0.001567227792267983,4.717047962316858,5.844425422299787,1.8326928676774188,0.3832268417930575,0.37528394185420727,0.09224560210896812,25.0,25.0,25.0,25.0,25.0,25.0,24.0,13.245,0.0,0.0,1.0,1781060995208243097
1781060995322385214,-0.00007641398560288082,57.25807974185555,103.12991942827256,-0.0023107447084449737,-0.014653709479032485,-0.00004958402606352887,0.0025002846635272928,0.04529164201636627,0.03126326586739824,-0.17761599700934724,0.003121558317548061,-0.0026790470976116674,6.265834991005728,6.0200253517708955,3.83758995434912,0.4271555586579017,0.2619333888506856,0.18064245358218545,25.0,25.0,25.0,25.0,25.0,25.0,24.0,16.993,0.0,0.0,1.0,1781060995308690734
1781060995422182954,-0.00006729868096562248,57.25851521667942,103.13004760091349,-0.0017807704696350154,-0.014582290730012833,-0.00006111870948559753,-0.002205607881764867,-0.031727850989894724,-0.026573865980497744,0.19484364208350297,-0.0007221090797924233,0.002256394333608034,7.217760683742809,5.806168334759167,1.573873604597767,0.3183320078294965,0.3900466825538466,0.05366127874696116,25.0,25.0,25.0,25.0,25.0,25.0,24.0,15.36,0.0,0.0,1.0,1781060995409392366
1781060995522438527,-0.000055553705675910835,57.2587919319881,103.13025245778492,-0.0025975325917753484,-0.014576043039585197,-0.000059203065861271246,0.0029659608476573997,0.0491058484159265,0.03527005015020094,-0.2439415837240525,0.004668997982505894,-0.003030489013362073,8.456271698598753,6.048187488637576,4.125912030205842,0.46890980593967385,0.24672417251363404,0.20956490270000783,25.0,25.0,25.0,25.0,25.0,25.0,24.0,19.556,0.0,0.0,1.0,1781060995505850178
1781060995622415959,-0.00007490924360399178,57.25863184670974,103.13010062348847,-0.0015397382510693868,-0.01455246248632975,-0.00003403924788330947,-0.00127994386771758,-0.000643957174345019,-0.01318930078577859,0.1898502625298683,0.003575733126154216,0.0013281595991327677,7.237571723492309,5.879177354171242,1.5695488145241137,0.3363791590056176,0.3725621679798313,0.05923394894015776,25.0,25.0,25.0,25.0,25.0,25.0,24.0,15.454,0.0,0.0,1.0,1781060995605752393
1781060995722243536,-0.00005219532700005487,57.25902465478701,103.13035310573753,-0.0023027782694473053,-0.01457115864638252,-0.00003381452342745238,0.0025272071734609267,0.03104368872941046,0.02819225202282619,-0.2224597531734059,-0.00011066534233009858,-0.0027809715814683176,8.242849756624008,6.01996890722447,4.017114451409872,0.5020864085471671,0.25680624677632624,0.21878590711221904,25.0,25.0,25.0,25.0,25.0,25.0,24.0,19.258,0.0,0.0,1.0,1781060995706141384
1781060995822409546,-0.00009888863758465476,57.2582025827128,103.12989871741632,-0.001245050711211938,-0.01464492637958163,4.440758417840609e-6,-0.0032297744900509117,-0.05325513744376577,-0.036433204919714295,0.1551743016573177,-0.0006371423679208652,0.003154981668099274,5.824884079286429,5.8533328244661815,1.7545178271399784,0.34055891017076906,0.3714795070328689,0.07058657302029574,25.0,25.0,25.0,25.0,25.0,25.0,24.0,14.215,0.0,0.0,1.0,1781060995806975203
1781060995922236209,-0.00007398781803665187,57.25876095360948,103.13018883799398,-0.0019227832534423877,-0.014590448924751484,-6.854744773725211e-6,0.0033047366976795894,0.06621163037921522,0.04249298897376703,-0.20194502485339083,0.005899501081393221,-0.0027439950178405133,7.2829014227633,6.068759733683838,3.9933241159624138,0.4353353435847751,0.24496440762298272,0.19038432451485696,25.0,25.0,25.0,25.0,25.0,25.0,24.0,18.216,0.0,0.0,1.0,1781060995908152530
1781060996022218157,-0.00006528717368234054,57.25919169236858,103.13034456283556,-0.001177054147787087,-0.014523968468002217,9.053729126840143e-6,-0.001587975407279058,-0.02343143771551157,-0.014701963916861844,0.1742670797597812,-0.005518824920325957,0.0025542235324113637,6.5292849513921825,5.867231663796519,1.7121553024249898,0.33209029584854804,0.36879796840160545,0.062300668808106946,25.0,25.0,25.0,25.0,25.0,25.0,24.0,14.872,0.0,0.0,1.0,1781060996009063674
1781060996122304338,-0.0001115494684314922,57.257269164285994,103.12962066380274,-0.001981234575176382,-0.014847582617082569,-0.00002522635194680214,0.002517013963213388,0.020664612654557428,0.0268076885340085,-0.15330725703870243,-0.005997331396071265,-0.00283137910905253,5.536452333154528,6.041407555967231,3.8120489801422326,0.39778838627168545,0.2588288948355187,0.16584923086881476,25.0,25.0,25.0,25.0,25.0,25.0,24.0,16.212,0.0,0.0,1.0,1781060996109737642
1781060996222451985,-0.00011948743528484954,57.25706788724916,103.1294411486758,-0.0014311706990762297,-0.01481411846362376,-0.000027211177144847525,-0.0027515873062573695,-0.035563689195958134,-0.03509366253028639,0.1928710531900977,0.004181175456387905,0.0036615320757336393,6.871367678057195,5.820744920964589,1.644293541835406,0.3126360849605705,0.3840884828160429,0.054196591495109234,25.0,25.0,25.0,25.0,25.0,25.0,24.0,15.087,0.0,0.0,1.0,1781060996210880532
1781060996322932180,-0.00010072214203376716,57.25813803412918,103.12977728263756,-0.0018512036663492265,-0.014594909644956064,-0.00003051895433817479,0.0024486574472398874,0.024409334543939537,0.025448697086184448,-0.16640945920321207,-0.003666075382048603,-0.002044159507077054,6.450283139511167,6.01245720071384,3.8164676360270935,0.4525887989755782,0.2707891889124279,0.19045832977694743,25.0,25.0,25.0,25.0,25.0,25.0,24.0,17.193,0.0,0.0,1.0,1781060996314959446
1781060996422407161,-0.0001286500621660168,57.25747301532568,103.12932608750144,-0.001171058870222946,-0.014574584156339184,-0.000021529026523077,-0.002328522558885167,-0.04377500073719067,-0.03364093734877468,0.11681994948926536,0.0015866845134867595,0.0018217493993211331,4.383015539672759,5.842515410064606,1.8512655172231172,0.39586292877213086,0.375389564374421,0.09875422407280514,25.0,25.0,25.0,25.0,25.0,25.0,24.0,12.947,0.0,0.0,1.0,1781060996415362003
1781060996522180336,-0.00010404469441319972,57.258351777729494,103.12973712636646,-0.0019551584342730605,-0.014449321588489729,-0.00006151706570271078,0.002756900034932427,0.03841497646367156,0.032325551451556946,-0.1636173928699999,-0.0012213973949131711,-0.002236460233191052,5.9035773166857,6.126253820039938,3.9449686667777057,0.3696788884127828,0.2299135010528185,0.1593504267394236,25.0,25.0,25.0,25.0,25.0,25.0,24.0,16.734,0.0,0.0,1.0,1781060996516089808
1781060996622522244,-0.00011308277010326738,57.25833414423093,103.12969850300786,-0.0013468907524577128,-0.014414767720620655,-0.000028614805258538548,-0.0031342028706967786,-0.03270294281782967,-0.027303876194261764,0.18934764458187253,-0.0026332486172745613,0.0017567357625757217,6.98930579793183,5.809099102287376,1.537514305064826,0.33314751032102596,0.39531554876788033,0.06026575850747688,25.0,25.0,25.0,25.0,25.0,25.0,24.0,15.125,0.0,0.0,1.0,1781060996616452484
1781060996722968569,-0.00011000904082654424,57.25777992105429,103.12959705060716,-0.0018316656710650784,-0.01459863682683844,-0.00003674443153353772,0.002746473324855725,0.03687461003247923,0.031671821573129665,-0.17208894976626984,-0.0025986039244526595,-0.0022627970926053587,6.58588676665073,6.012431976078848,3.845403374387178,0.43556148576002646,0.27045996172003395,0.18609950448287096,25.0,25.0,25.0,25.0,25.0,25.0,24.0,17.336,0.0,0.0,1.0,1781060996718592576
1781060996822618840,-0.00008835810478941816,57.25849370320707,103.13000020772674,-0.0012290522152087853,-0.014603209451422655,-0.000040120890740339806,-0.0018035177313401344,0.000728860305703037,-0.015457764643463268,0.18992579285968125,0.005592540596211089,0.0014038514306606617,7.26437770433624,5.789216722999955,1.4768742888246034,0.3397866097799257,0.3999075896344408,0.060639809751675586,25.0,25.0,25.0,25.0,25.0,25.0,24.0,15.331,0.0,0.0,1.0,1781060996816632796
1781060996922989728,-0.00010025173695017082,57.25803181213712,103.12982398614967,-0.0018185336943425407,-0.014669280411075838,-0.00004800379180191941,0.0021732369038482053,0.01888355444994634,0.020676255605468003,-0.16746407900511853,-0.0018355863733741332,-0.0023131632973876315,6.463744683834065,6.048708408595968,3.9083048824011386,0.41748991133120467,0.25612492464251646,0.17902739482124003,25.0,25.0,25.0,25.0,25.0,25.0,24.0,17.273,0.0,0.0,1.0,1781060996916841036
1781060997022070702,-0.00011669156138397366,57.25793487291592,103.1296427680883,-0.0009729131957292668,-0.01461771910761911,-0.00004679129708580784,-0.002227283368816471,-0.0023660342039058123,-0.01613836724400085,0.188373040567902,0.004790326595761554,0.001912469287159149,7.103647800038461,5.84221719377778,1.587855356384301,0.33036048406500584,0.37514363858710253,0.0578650339496022,25.0,25.0,25.0,25.0,25.0,25.0,24.0,15.297,0.0,0.0,1.0,1781060997019069189
1781060997122218460,-0.000101403517234784,57.25806654257706,103.1297498348605,-0.0017458062897852758,-0.01458760812464164,-0.000047519620944529285,0.0017925362545298446,0.008843106775475963,0.017657100991041275,-0.12996831469472386,-0.005533636576451873,-0.00254955542077895,5.009273847589408,6.06670416632272,3.759559634891956,0.3740110121307203,0.2552412924285284,0.15470012028823896,25.0,25.0,25.0,25.0,25.0,25.0,24.0,15.619,0.0,0.0,1.0,1781060997119356064
1781060997222331506,-0.00009624701827083736,57.25811174874565,103.12979794273092,-0.0010214311924928278,-0.014673350989928488,-0.00003182590826563022,-0.0017545810497156566,-0.02526322137438621,-0.025700251110344317,0.1399591881171417,0.0029010061875512573,0.0013823952352807977,5.278721758952013,5.830734325173106,1.746179898786887,0.37464973233412285,0.3796139775121168,0.08555520530605497,25.0,25.0,25.0,25.0,25.0,25.0,24.0,13.695,0.0,0.0,1.0,1781060997220399292
1781060997322557105,-0.00008527752919844425,57.258447631973986,103.12993424651609,-0.0016728748306819934,-0.014578880219025729,-0.00004589964454499364,0.0005442474176105708,-0.0226344607605076,-0.002014585881878639,-0.13440978131449793,-0.0043510995520333225,-0.002042707735636513,5.219706859102773,6.038378267209578,3.765605590195193,0.3867928059264553,0.260649426973199,0.16026779343650888,25.0,25.0,25.0,25.0,25.0,25.0,24.0,15.831,0.0,0.0,1.0,1781060997320699190
1781060997422007475,-0.00008628328630801419,57.25829608627443,103.1298834750034,-0.0011287275731343945,-0.014594754711095972,-0.000033611268529883246,-0.0007837618403307212,0.0030023982679300426,-0.00888908460272115,0.1648710415742972,0.0026057940116150243,0.001885184417133084,6.209292725533519,5.829825784504109,1.6699880527560538,0.3474725953592731,0.3859201689553691,0.07031572763345292,25.0,25.0,25.0,25.0,25.0,25.0,24.0,14.513,0.0,0.0,1.0,1781060997421425829
1781060997522002227,-0.00007002052234511738,57.25854381311165,103.13010805695852,-0.0018350318809487024,-0.014623728615014295,-0.000029444221696145628,0.0012246500797480702,0.018980512370018236,0.01872982899058545,-0.15855910195758982,0.0015031833894714023,-0.0007746842957408873,5.806582665328274,6.0099983844391005,3.771743278206714,0.4201245629010558,0.27414938602955896,0.17548552153231162,25.0,25.0,25.0,25.0,25.0,25.0,24.0,16.458,0.0,0.0,1.0,1781060997521417274
1781060997622317225,-0.00007569066642485661,57.25855315343668,103.13000138155296,-0.0019421283669259295,-0.014545028911427983,-0.00005814280115249178,0.0012604315101478834,-0.00689524598084047,0.008119378160230454,-0.17536564005734415,-0.0011977718994692884,-0.0009158251035159172,6.391961919888764,6.027896535008163,3.907931762587512,0.4164814737647758,0.2646856762231453,0.17808907777289576,25.0,25.0,25.0,25.0,25.0,25.0,24.0,17.187,0.0,0.0,1.0,1781060997605539940
1781060997722284730,-0.00008402931347024959,57.258448244177465,103.12997739266793,-0.001281830337277506,-0.014640137614459354,-0.000037567162006162725,-0.005318317749094406,-0.0648593439525764,-0.04288086243197569,0.13110448825554774,-0.004557255711866859,0.0025645800094623947,4.975104291678989,5.816151348088336,1.788096187365417,0.3737574909635279,0.38377741469011933,0.08762887204056499,25.0,25.0,25.0,25.0,25.0,25.0,24.0,13.425,0.0,0.0,1.0,1781060997707739607
1781060997822202083,-0.00005532586389175837,57.25899959038364,103.13033305097,-0.0019868585620167805,-0.014622127035466852,-0.0000565572723714716,0.002131120069378494,0.015177076848710258,0.017858625237400557,-0.187547961047396,-0.00018907777475491943,-0.0030507234425623487,6.873701919687447,6.043935817002241,3.897642780680696,0.45228930175020465,0.25840142681642564,0.19311594296805537,25.0,25.0,25.0,25.0,25.0,25.0,24.0,17.719,0.0,0.0,1.0,1781060997808849346
1781060997922259076,-0.00006048115834292829,57.25909804657261,103.1302143985312,-0.0013682460660658015,-0.01448549838448003,-0.00006257536375083866,-0.0018089823354606243,-0.01511885701748506,-0.020802637749269475,0.18038952244186784,0.002278511362720323,0.0014869425915249167,6.763238230395372,5.816373920546743,1.598520998059784,0.3373694877349813,0.3816563711987341,0.06301436239552669,25.0,25.0,25.0,25.0,25.0,25.0,24.0,14.96,0.0,0.0,1.0,1781060997909217734
1781060998022234726,-0.00007497969417129434,57.25896783771281,103.13017959112857,-0.001981082033987044,-0.014511170351749304,-0.00005585043651450071,0.0014920655267570608,-0.003854607533526446,0.01040014442726586,-0.15918954347059286,-0.004351819105083533,-0.0021416683860130663,6.010306502172892,6.029411444593031,3.848586280697339,0.41295648595390466,0.26265917206849726,0.17426639994349194,25.0,25.0,25.0,25.0,25.0,25.0,24.0,16.738,0.0,0.0,1.0,1781060998009279108
1781060998122184626,-0.00010322000674710384,57.25863168346648,103.12998049204654,-0.001170751385510437,-0.014543008285889718,-0.000021563937506200814,0.00011165775140646903,0.014615546146220956,-0.0012316860313408796,0.1433478847068827,0.0034958823816703542,0.0013480839340257928,5.205452948645122,5.90165397086175,1.839109326258887,0.3616320974703226,0.3593418468012263,0.08170737461444771,25.0,25.0,25.0,25.0,25.0,25.0,24.0,13.749,0.0,0.0,1.0,1781060998110001907
1781060998222288996,-0.00006324615811322169,57.25902349966455,103.13025222286198,-0.0019015644539304875,-0.014509584167059268,-0.000023532726629151784,0.00064264979905925,-0.01887702322563023,0.0009157389364325056,-0.17556922238119882,-0.001863480890437636,-0.0016931885456911396,6.361778150383014,6.031926492585239,3.825753672086993,0.435218974531399,0.2627640748976589,0.18408207874132557,25.0,25.0,25.0,25.0,25.0,25.0,24.0,17.102,0.0,0.0,1.0,1781060998210346295
1781060998322803350,-0.00006719773038128327,57.25923912571498,103.13027722739376,-0.001161506403988866,-0.014480416964251548,-0.00003628393390451615,0.0002528056363070723,0.025421733801442817,0.0002038442112967443,0.1496310897751568,0.007137376277648738,0.001366641904684536,5.4675066460473785,5.889226014087569,1.7824587479299736,0.36680586659118736,0.36129252574077614,0.08162923969035804,25.0,25.0,25.0,25.0,25.0,25.0,24.0,13.949,0.0,0.0,1.0,1781060998311964900
1781060998422310958,-0.00006799177883291498,57.25936374945604,103.13038306502038,-0.0020253726806758595,-0.014484139101178463,-0.00004923793404202274,0.002743862223946034,0.03286186762628638,0.027216338409830843,-0.25174619893081035,0.002895819047660977,-0.0027819814280856127,9.37365370365024,6.067658899017192,4.110891611869185,0.4926056555365952,0.2497470438116311,0.22432848109658557,25.0,25.0,25.0,25.0,25.0,25.0,24.0,20.519,0.0,0.0,1.0,1781060998407340808
1781060998522426012,-0.000228729044543282,57.25813370702793,103.12979470809064,-0.0018797026639389904,-0.014709299334594968,0.00023215094705783263,0.0013400343790126816,-0.007796968178774839,-0.01429353069937184,0.1681960648289005,0.007120935122242469,-0.0027556147082720716,5.4771689495186155,5.854617662002369,1.766066283256398,0.3683333432495341,0.3717937422358908,0.08182971147613859,25.0,25.0,25.0,25.0,25.0,25.0,24.0,13.92,0.0,0.0,1.0,1781060998507557514
1781060998622219925,-0.00005383674401266796,57.25970713405472,103.13055522165976,-0.0020021137440474368,-0.014436035085165885,-0.0000209761393495835,0.0030920270365679867,0.03935553424358675,0.03313150937898939,-0.2367585258649355,0.0009609097034846938,-0.003091991356704075,8.707066247464255,6.002038396633509,4.071674919271926,0.4845421249138744,0.2694773227508205,0.2167802263722882,25.0,25.0,25.0,25.0,25.0,25.0,24.0,19.752,0.0,0.0,1.0,1781060998609046826
1781060998722323620,-0.00005845293799631974,57.259801947268265,103.1305433194972,-0.0009379349240053708,-0.014394878883710513,-2.5198206742819724e-6,-0.0010387283827585172,0.024231994574308115,-0.003374522329555817,0.26368701825881863,0.005843272799880664,0.003049036706317181,9.856593706198009,5.802871362512433,1.3178842665672328,0.245168466565424,0.39600285326684453,0.011477892426501346,25.0,25.0,25.0,25.0,25.0,25.0,24.0,17.63,0.0,0.0,1.0,1781060998709901061
1781060998822297186,-0.00007677015934213177,57.259306505191375,103.13033027890222,-0.0019265513248021915,-0.014440296011602384,-5.4255059606172266e-6,0.0026570993439102657,0.03827802436460686,0.025993836518357436,-0.24099725083856105,0.003895099881410672,-0.003774847137229508,9.14795200260416,6.067694312261579,4.119940857853053,0.4772955912293909,0.24713423929023545,0.21770245441845384,25.0,25.0,25.0,25.0,25.0,25.0,24.0,20.278,0.0,0.0,1.0,1781060998810067313
1781060998922714374,-0.00006956480757718896,57.25934401462047,103.13036946938888,-0.0009715214902381492,-0.014527626210350045,-0.00002005956127697201,-0.0024346226396047867,-0.004760486781837694,-0.015359646999901914,0.17166350037766967,0.00276571744053405,0.0020267623299154163,6.296346714195968,5.904103570066097,1.7719225861454193,0.3310055840300805,0.3553181847290188,0.06373087834073415,25.0,25.0,25.0,25.0,25.0,25.0,24.0,14.722,0.0,0.0,1.0,1781060998914772658
1781060999022705330,-0.00010495920925688836,57.259196191452745,103.1303474780781,-0.0017664688535393182,-0.014585950015686303,0.00004419727930006986,0.0022114534889349224,0.011389995863065836,0.010948055930653696,-0.1783990687863587,0.003214337338693861,-0.003877927584355824,6.914971066127164,6.012176085369439,3.869616992566897,0.45829976466575584,0.2619406776261955,0.19528569606416735,25.0,25.0,25.0,25.0,25.0,25.0,24.0,17.712,0.0,0.0,1.0,1781060999015687469
1781060999122941124,-0.00008179898431848291,57.25962059297307,103.13029872290846,-0.0010446466531964726,-0.014331444097697172,9.155463774649824e-6,-0.0007165719510073155,0.0016108080799496125,-0.01456442370679838,0.1856732706867188,0.008272748789940942,0.00232471234793433,6.887029981493477,5.83066885209613,1.5932189385555455,0.3488521084847475,0.3780998027898933,0.06567366222323548,25.0,25.0,25.0,25.0,25.0,25.0,24.0,15.104,0.0,0.0,1.0,1781060999118016356
1781060999222294766,-0.00008201286435725344,57.25966480733125,103.13032419631188,-0.001761448741283178,-0.014328244135279193,-0.000028259362109679195,0.0025048760328823865,0.04701203259853392,0.03065808703435076,-0.18035986838851317,0.005577704727466014,-0.0015595037438679569,6.703360430908544,6.020938797016361,3.913221473744424,0.43017407809783714,0.2671091306485369,0.18500291621888804,25.0,25.0,25.0,25.0,25.0,25.0,24.0,17.52,0.0,0.0,1.0,1781060999217269242
1781060999322625111,-0.00008775515168602735,57.25980198484098,103.13036900859323,-0.0009405216403444066,-0.014321268379645808,-0.000011772832622336127,-0.002865934859046704,-0.019392305626701873,-0.020439893683957613,0.23244476757876317,-0.001924880230126774,0.002917454208571144,8.680411756453237,5.804562582156077,1.4143705788289729,0.27333011544693525,0.3929001674829251,0.02878914115564734,25.0,25.0,25.0,25.0,25.0,25.0,24.0,16.594,0.0,0.0,1.0,1781060999318512974
1781060999422581333,-0.00006796864886023855,57.2594170078112,103.13028828613336,-0.002108573074641695,-0.014376842670913804,-0.000023175317676693996,0.002843642579479583,0.04953412994870458,0.02796404063750045,-0.25788724784086936,0.008979471675540212,-0.003456607455768131,9.69806962050396,6.06705890607936,4.061930771063297,0.5045324892768163,0.2506028103591279,0.2306634932341265,25.0,25.0,25.0,25.0,25.0,25.0,24.0,20.813,0.0,0.0,1.0,1781060999418729786
1781060999522255025,-0.0000748932671682047,57.25908402515895,103.13016402733568,-0.0012506111602319295,-0.01449166479781546,-0.000026704880382352557,-0.002959457264665685,-0.033674215483510524,-0.02330322473328028,0.2091458579237162,-0.005043082847631173,0.0031281076731261635,7.87877396586816,5.802802032182504,1.6492861949033029,0.2867679582776683,0.3872484362144846,0.038387306070450995,25.0,25.0,25.0,25.0,25.0,25.0,24.0,16.043,0.0,0.0,1.0,1781060999516251673
1781060999622440275,-0.00009503892756191404,57.25872424069921,103.1301038203378,-0.0018608405554496213,-0.014526429117649906,0.0000503906341948745,0.0011207855362986355,0.002973456305107092,0.004018278813455117,-0.1879655640691916,0.00837662690147762,-0.0003373500669024242,6.961283088146793,6.035005496305129,3.75697635200419,0.4644850565106642,0.26800853849017775,0.19823435712808377,25.0,25.0,25.0,25.0,25.0,25.0,24.0,17.684,0.0,0.0,1.0,1781060999618465660
1781060999722076068,-0.00006315698265452568,57.25984980354583,103.1304721561483,-0.0011320490767913944,-0.014347727688478569,-7.666283334384186e-6,-0.003229513843448858,-0.03472596338778231,-0.02521542609692814,0.23167561846352192,-0.004967740240543687,0.003249535605117336,8.79982944787363,5.7599069955108755,1.537822940755658,0.2627151171191401,0.40401279804232776,0.024320629188524047,25.0,25.0,25.0,25.0,25.0,25.0,24.0,16.789,0.0,0.0,1.0,1781060999718335573
1781060999822802949,-0.00007627478276277054,57.259654183788776,103.13035535893596,-0.0019698242427741088,-0.01434340150292125,5.404814175422451e-6,0.0026741268943556067,0.04375705632800086,0.026387155940906726,-0.2518260198407002,0.007944858942155988,-0.003436247939697269,9.490763182201238,6.065282390725666,4.038323366949599,0.505971257532662,0.24962306942221132,0.2294816699019664,25.0,25.0,25.0,25.0,25.0,25.0,24.0,20.579,0.0,0.0,1.0,1781060999819945003
1781060999921932201,-0.00011374735922546648,57.2596017757836,103.13038963235272,-0.0013759457852135124,-0.01442727791046319,0.00009967786493021838,-0.0002095987172521473,-0.009336268829847878,-0.010497837971670115,0.2493420640353577,-0.002743024865754452,-0.00009063300965356824,9.139847253408735,5.775994707440736,1.545146543629789,0.2492080330026254,0.3945043441258786,0.017203901246974414,25.0,25.0,25.0,25.0,25.0,25.0,24.0,17.122,0.0,0.0,1.0,1781060999921241119
1781061000022074413,-0.00008099319730179845,57.25976602098568,103.13035047898904,-0.0019705887972546856,-0.014272615320665072,-2.7579882905151676e-7,0.0021180067628044537,0.009037330976617785,0.013415368179851062,-0.20214330475244824,0.00004655325688292894,-0.002625912218976039,7.72699175111443,6.025077766431659,3.827947540875388,0.49768775764150225,0.2681985900602366,0.21416374404956504,25.0,25.0,25.0,25.0,25.0,25.0,24.0,18.56,0.0,0.0,1.0,1781061000021886108
1781061000121980822,-0.00010146379356114456,57.2593686916412,103.1300715437928,-0.000914178064899781,-0.014284466687810455,0.000023570123992261408,-0.002082264918297072,-0.022561752459699,-0.020018073035546338,0.19977697375553333,-0.0017642692216165187,0.0022723960383906117,7.501058449234439,5.800784775953672,1.660383408678021,0.30274000380340993,0.38681256645628864,0.04623781513640592,25.0,25.0,25.0,25.0,25.0,25.0,24.0,15.698,0.0,0.0,1.0,1781061000121176842
1781061000222085768,-0.00010279101074120996,57.259346006569,103.13011077328066,-0.0017668102835158505,-0.014309007690421304,3.7577395941136217e-6,0.0022986397687724163,0.018360686559764697,0.015075708854816988,-0.19230058533030037,0.0030577823069994985,-0.0029158459467778035,7.406497935960273,6.070134861722552,3.816541528053557,0.46137186548735376,0.25579789319702795,0.200650158412815,25.0,25.0,25.0,25.0,25.0,25.0,24.0,18.211,0.0,0.0,1.0,1781061000221903961
1781061000322393495,-0.0001055190780668101,57.2596111481576,103.13014053335311,-0.0017744091930472574,-0.01420415181942687,0.000015292170131146854,0.002004712196583494,0.006686995721001621,0.008986330879972021,-0.1680825727351914,0.0016178394099174251,-0.003039233061714397,6.516372236925263,6.037579611682955,3.754559200646072,0.4455566860399872,0.2654201207269992,0.18882834665084783,25.0,25.0,25.0,25.0,25.0,25.0,24.0,17.208,0.0,0.0,1.0,1781061000302716140
1781061000422199798,-0.00011602200232333988,57.25939902831985,103.13012267608045,-0.0009874403246544084,-0.014271261498529971,0.00006888218936398644,-0.0017249744253251516,-0.014053218227387702,-0.010072074987442557,0.216797198266551,-0.005931990136573798,0.0020021107748545218,8.153507193239616,5.812642262429496,1.64464897387687,0.2694227310700899,0.3841623471222338,0.030540493052722276,25.0,25.0,25.0,25.0,25.0,25.0,24.0,16.295,0.0,0.0,1.0,1781061000406123561
1781061000522258915,-0.00018536281970032712,57.25924387012699,103.13004193832214,-0.002362692236962839,-0.01432778770526532,0.00020113539101334707,0.0033219966503080975,-0.014158750551167536,0.002811159765150702,-0.15191143939412136,0.0045109554154159955,-0.0030629764227468885,6.204493796862823,6.059958014341923,3.7003500610709064,0.4552025521452947,0.2643533975055035,0.18980585909733969,25.0,25.0,25.0,25.0,25.0,25.0,24.0,16.874,0.0,0.0,1.0,1781061000503725287
1781061000622284877,-0.00010516493725156206,57.259660723865274,103.13016209718155,-0.0009688608081576476,-0.014215816991319349,0.0000427943056312176,-0.0023385721852219746,-0.01985546983954714,-0.016801609384939714,0.1762482784391241,-0.00284003945922279,0.0018277700633730653,6.720199584132321,5.819671344326289,1.790351087199623,0.3038142540749137,0.3793014236569296,0.05190641697700104,25.0,25.0,25.0,25.0,25.0,25.0,24.0,15.065,0.0,0.0,1.0,1781061000608879895
1781061000722221732,-0.00008259441245372108,57.25919662352271,103.13031594565402,-0.0018748565665125368,-0.014508130260777416,2.77784453685294e-6,0.0023013708665162273,0.02242543869078031,0.01840841918835929,-0.2161162366634476,0.002429211058688409,-0.002817025525332326,8.203849178141335,6.049281701434298,3.8754745710950727,0.4896553026212131,0.2614490496233924,0.2154367803143904,25.0,25.0,25.0,25.0,25.0,25.0,24.0,19.095,0.0,0.0,1.0,1781061000709899447
1781061000822294339,-0.00011346852772852228,57.25892133123547,103.13033181384642,-0.0012409815034267323,-0.014691487473211674,0.00008712825698889087,-0.007376180658877928,-0.033882730794968126,-0.02667725420143693,0.16290457097965025,-0.007153987222858046,0.011469296240446838,7.550228254915353,5.822726488282579,1.696379497440012,0.2901535315236672,0.3780598147022068,0.04174793938777351,25.0,25.0,25.0,25.0,25.0,25.0,24.0,15.779,0.0,0.0,1.0,1781061000806879250
1781061000922179838,-0.0002004776886167571,57.257938011425615,103.12984657325563,-0.002552654560816856,-0.014799733626129496,0.00022555988622202444,0.0037507233762653007,0.003756070530943541,0.00813872421697192,-0.16063421462844463,0.005717453191204978,-0.006547687523360292,6.685702724959817,6.0744241830670145,3.7694641099481463,0.46463569861766785,0.2538814632211737,0.1959663393480676,25.0,25.0,25.0,25.0,25.0,25.0,24.0,17.444,0.0,0.0,1.0,1781061000909819904
1781061001022362367,-0.00009996818975689576,57.25937264949141,103.13022822636084,-0.0010222179706545042,-0.014349714708413805,0.00008210597568327549,-0.0023848927303708727,-0.022392574552550736,-0.01705425108903607,0.19765719874391255,-0.00236572679461696,0.002966327286166501,7.453582320232508,5.849502620229589,1.7968751598677657,0.2727869147985418,0.3660148903017833,0.036454962938963595,25.0,25.0,25.0,25.0,25.0,25.0,24.0,15.775,0.0,0.0,1.0,1781061001010242250
1781061001122511685,-0.00007086277652212591,57.260404520666306,103.13052654680612,-0.001801414019616812,-0.01409951802224264,0.000024692163918815963,0.0021624432262016303,0.02165419344773441,0.01750643861000853,-0.21440104987952271,0.003459649215759064,-0.0026083260099987156,8.030850368174177,6.027077789595683,3.885302640434251,0.49263562227232816,0.2648646285417104,0.21465518016493212,25.0,25.0,25.0,25.0,25.0,25.0,24.0,18.915,0.0,0.0,1.0,1781061001113262113
1781061001222929679,-0.00009200364241462193,57.25907468645947,103.13030305113048,-0.0010536121260204105,-0.0145458162492043,0.00005363849845035303,-0.0018287585460493392,-0.023323517861961268,-0.018754420391909755,0.20563588433716112,-0.001037603392766952,0.0031516433869260346,7.665234107711545,5.848296967806849,1.6959948590140808,0.2913460010206558,0.3697481521439984,0.041281762487589725,25.0,25.0,25.0,25.0,25.0,25.0,24.0,15.912,0.0,0.0,1.0,1781061001213588119
1781061001322810738,-0.00008338278625227404,57.2593301167984,103.1304348023764,-0.001990070791777648,-0.01450758298527906,0.000011119705855520266,0.002483089285463134,0.025813274245297654,0.022435574725421997,-0.19912999372738804,0.0013744271629440895,-0.0025472184594094545,7.5104267097992174,6.041676062916049,3.834801057725408,0.4767470534642309,0.2663718973609671,0.2059488995354135,25.0,25.0,25.0,25.0,25.0,25.0,24.0,18.336,0.0,0.0,1.0,1781061001314656639
1781061001422187196,-0.00014286592037246636,57.25859000280319,103.13015244966812,-0.001465106567436871,-0.014677944015570816,0.00014042103480023716,-0.0008816873060401437,-0.021129815254134553,-0.013668642153806738,0.1930533473619783,-0.0050726968020444844,0.0001225669571272799,6.876635784197922,5.845566602784781,1.821110937444642,0.29559768889167054,0.3653736821127915,0.04803058831122057,25.0,25.0,25.0,25.0,25.0,25.0,24.0,15.252,0.0,0.0,1.0,1781061001409997845
1781061001522253058,-0.00010001292765873874,57.2589490532684,103.13042373253316,-0.0021586864158657667,-0.014660931544622,0.00009566139062438262,0.003443724699346528,0.03775511893402918,0.02988165543852941,-0.21185316245032143,0.002153640243905704,-0.002974613318955664,8.165587491035877,5.992756147550922,3.793308989164776,0.5111471725152616,0.27908025481935167,0.22200209176134617,25.0,25.0,25.0,25.0,25.0,25.0,24.0,18.964,0.0,0.0,1.0,1781061001511016479
1781061001622317486,-0.00009452635933689856,57.259710972867666,103.13026866179074,-0.0009941942729858547,-0.014255483469746942,0.000021044057867199023,-0.0027040434479205034,-0.01360465792145522,-0.01858371314542963,0.2168078593239268,0.000316863235373121,0.002817617116329951,8.222422674727166,5.789995567801026,1.5862002755461766,0.2850376956374002,0.3945173865656302,0.03556009219599277,25.0,25.0,25.0,25.0,25.0,25.0,24.0,16.314,0.0,0.0,1.0,1781061001612215132
1781061001722208830,-0.00010276696063181472,57.25976269756559,103.1303740953886,-0.0020006322249718216,-0.014312727394833785,0.0000692463239242925,0.0029813560092376203,0.035811136054750024,0.021313014561043783,-0.21490229568902627,0.007596601570731304,-0.004859727547549794,8.294473664172296,6.08472627101699,3.961201684195742,0.4660272392847827,0.24648867399698884,0.20818272887353684,25.0,25.0,25.0,25.0,25.0,25.0,24.0,19.261,0.0,0.0,1.0,1781061001717922305
1781061001823070438,-0.00008220406374654765,57.25973113451866,103.13042804033898,-0.0009541680970556156,-0.014348519246186674,0.00003212675392260989,-0.0030954958702155803,-0.0327897726673729,-0.02251990473517196,0.20069809165315391,-0.0059859942911763536,0.0020983724282589533,7.763885776843904,5.789290950385107,1.6249921447580178,0.3067159267204059,0.3933133200634006,0.045486257684955095,25.0,25.0,25.0,25.0,25.0,25.0,24.0,15.924,0.0,0.0,1.0,1781061001813665351
1781061001923086097,-0.00016588844050953702,57.259417812056384,103.1301772274036,-0.0022561916515660215,-0.01437889422292327,0.00016242487017493733,0.0033736756187763145,-0.00491151715038101,0.004533161645254519,-0.12896619029516307,0.0002097846269355922,-0.005861502734131119,5.682324821684188,6.046419481011735,3.6544178896470454,0.4351062424566315,0.26541637704748655,0.17961628024035764,25.0,25.0,25.0,25.0,25.0,25.0,24.0,16.263,0.0,0.0,1.0,1781061001914666018
1781061002022893090,-0.00012203497731561276,57.25940275300665,103.13021217813332,-0.0011403978627185791,-0.01435731801171771,0.00010439465077067032,-0.0006175351534357701,-0.03204798158964958,-0.015035952764378264,0.2066815050996442,-0.008381752238345362,0.0014617514030067788,7.530077656326436,5.806869532783934,1.7393530070341612,0.2756915966985062,0.3842325905674781,0.03709939824628386,25.0,25.0,25.0,25.0,25.0,25.0,24.0,15.773,0.0,0.0,1.0,1781061002015740101
1781061002122965105,-0.00009316664580641963,57.25963543964048,103.13023364292086,-0.0018680171328218076,-0.014257779190804034,-4.604169906640956e-6,0.002519605453049925,0.02719730841750087,0.01986241854705388,-0.22493902143477665,0.0043563119890562985,-0.0028743855775205844,8.609736818400577,6.075899789243252,3.92283335267181,0.4890948246301622,0.25189550390934273,0.2181005657707111,25.0,25.0,25.0,25.0,25.0,25.0,24.0,19.568,0.0,0.0,1.0,1781061002119791051
1781061002222532613,-0.00010882170715845672,57.25949832247511,103.13025515741742,-0.0011057895528068643,-0.014383194322290146,0.00006075118921883549,-0.0015711374277389343,-0.012935396065092666,-0.014920731573029852,0.19459910426877172,-0.0006426120581230995,0.0007705774140483722,7.286532947073756,5.82535660148452,1.7253681481986949,0.3015011218946295,0.378525632938883,0.0472443984936116,25.0,25.0,25.0,25.0,25.0,25.0,24.0,15.565,0.0,0.0,1.0,1781061002220469434
1781061002322028377,-0.00007952865687250967,57.25930822281418,103.13036660007904,-0.0017482114622540844,-0.014476357769004852,0.00005194120815356573,0.0016145316201160711,0.00261964084350445,0.008576704278410808,-0.15820098989487033,-0.001225436026980922,-0.0029791793303582284,6.176130633087425,6.039865396757289,3.685010638370937,0.4595890545719592,0.2604860472530548,0.1909171171008544,25.0,25.0,25.0,25.0,25.0,25.0,24.0,16.812,0.0,0.0,1.0,1781061002318106811
1781061002422603521,-0.00010254257447640152,57.25934655532558,103.1301392387628,-0.00111689547177335,-0.01431870127318003,0.00003770899646188538,-0.0025542425352910987,-0.04883939541640523,-0.03302875470436194,0.18835313751780225,-0.0015707322196774009,0.003341503824492073,7.112090908011966,5.797618760496016,1.7227124610795406,0.30402559511774047,0.38692169993485104,0.04936496851511641,25.0,25.0,25.0,25.0,25.0,25.0,24.0,15.373,0.0,0.0,1.0,1781061002419504445
1781061002522159040,-0.00010402709206425108,57.259358096315054,103.13010010434142,-0.00181603358105468,-0.014284343687566332,-1.904518889057974e-7,0.002212348239332156,0.016562753030954516,0.014481639868534724,-0.19925879329259935,0.0024816948758344163,-0.003186394247364814,7.659681621845483,6.058112688003867,3.867592946437717,0.4666783626053971,0.25733360371594793,0.2038383936036677,25.0,25.0,25.0,25.0,25.0,25.0,24.0,18.513,0.0,0.0,1.0,1781061002520328161
1781061002621913537,-0.0001042801459203072,57.25937413360454,103.13014098575296,-0.0010004119020972176,-0.01436577126402018,1.0088987620120545e-6,-0.0019806518697903872,-0.019715173958505885,-0.014734106200786749,0.20832002835833316,-0.005006057345852204,0.0023549112805376403,7.837396757488246,5.801052864570952,1.669937852472259,0.2859687947718974,0.3840186095789736,0.03821755832957805,25.0,25.0,25.0,25.0,25.0,25.0,24.0,16.017,0.0,0.0,1.0,1781061002621271109
1781061002721940865,-0.00011268904228338809,57.259225721023846,103.13012896405176,-0.001879305918145068,-0.014430415025704297,0.000015789668677119867,0.0029785973667866153,0.03710475232627243,0.024091841800909605,-0.22309690959045733,0.006775922453972689,-0.003438489478131307,8.51518216944678,6.040533136579512,3.956907038568538,0.49786117572439526,0.2598733390683552,0.21994092422049832,25.0,25.0,25.0,25.0,25.0,25.0,24.0,19.49,0.0,0.0,1.0,1781061002721427179
1781061002822324220,-0.0001734696478197638,57.258328853951646,103.1297705176526,-0.0020773635395918227,-0.014598996459398902,0.00011005298009382712,0.003097455737840995,0.0027013273849905424,0.010369754824924415,-0.1396023253047513,0.0019373876450170936,-0.00451341716436126,5.700149445461386,6.030427645297091,3.639477547929548,0.4267023365692931,0.2721196941675924,0.17713843585210262,25.0,25.0,25.0,25.0,25.0,25.0,24.0,16.246,0.0,0.0,1.0,1781061002805831167
1781061002922079436,-0.00010491072054157974,57.25887096354465,103.1299657806736,-0.0010872974999555302,-0.014443674723629491,-0.000011203257241412908,-0.002366763375636006,-0.027847363455796855,-0.021236131664514372,0.19092528825231125,-0.000983272240962245,0.003040977795778211,7.342681482812847,5.828840678538424,1.7077712190685528,0.3073879807798361,0.36985143788047536,0.048735778007422854,25.0,25.0,25.0,25.0,25.0,25.0,24.0,15.605,0.0,0.0,1.0,1781061002911598654
1781061003022260150,-0.0000930515952854204,57.25913387824549,103.13013652230136,-0.0018459176519073472,-0.014434757557432265,-0.000025017313524064716,0.002029135405298563,0.011344605961151976,0.013721396374498363,-0.17202724604914968,-0.0005063602844800956,-0.002965752068505423,6.609384808381785,6.046557760917897,3.7657891223348177,0.4513370687564439,0.2650612223470787,0.19158818290261057,25.0,25.0,25.0,25.0,25.0,25.0,24.0,17.33,0.0,0.0,1.0,1781061003003737247
1781061003122247172,-0.00016094674974165513,57.2585828752865,103.12988704763922,-0.0013045713606308095,-0.01461620610798499,0.00008502048484128109,-0.006541878982667851,-0.028032563472120967,-0.018534899316736627,0.13468452890991978,-0.009186522194971307,0.01151515753796441,6.4473907392488075,5.828934254701972,1.7873705128804502,0.3226245396514789,0.3778081734043649,0.06011739049648914,25.0,25.0,25.0,25.0,25.0,25.0,24.0,14.824,0.0,0.0,1.0,1781061003108428822
1781061003222279197,-0.00010335284729781682,57.258850101933795,103.13012185126009,-0.001790490755752433,-0.014592970087606709,-0.000010492222276059748,0.0024033642822982827,0.012150861328928918,0.016622946575672225,-0.19606904389716975,0.0002237317636780905,-0.002252605550551197,7.50774075487354,6.035596146813341,3.809063075718684,0.4775309038978539,0.26802188107819136,0.2063966085280209,25.0,25.0,25.0,25.0,25.0,25.0,24.0,18.304,0.0,0.0,1.0,1781061003209955980
1781061003322358484,-0.0001704217317535923,57.25869634603571,103.13003955278592,-0.001412446984991337,-0.014653083494576294,0.00013562803665309188,-0.011675077860205637,-0.04757582484689983,-0.0230043680233214,0.15369874565110364,-0.021085726244066804,0.02199077875442188,8.669471361391171,5.768827167041958,1.569962983979417,0.2660613739049293,0.4042301373136219,0.026370369571442037,25.0,25.0,25.0,25.0,25.0,25.0,24.0,16.705,0.0,0.0,1.0,1781061003310515750
1781061003422698960,-0.00010236118116328007,57.258793000450574,103.13003947377592,-0.0018501817452813776,-0.01450580673329058,2.6884658153555247e-6,0.001859523909199034,0.000054189959261004064,0.008700948236477152,-0.17475938070201355,-0.001815239629799261,-0.003259011537408465,6.8166919396456205,6.056882718205418,3.769029082530977,0.4572457991326396,0.26380484652435143,0.19486050830015145,25.0,25.0,25.0,25.0,25.0,25.0,24.0,17.559,0.0,0.0,1.0,1781061003411388433
1781061003522383149,-0.00011825571318997446,57.258832064319925,103.13012507201434,-0.0011271820234617384,-0.014603448443036564,0.00004062978972874644,-0.0009901564264466552,0.0019447288111764287,-0.010579898451500218,0.22199869631739383,0.0022153555586815524,0.0009137530125622156,8.10486450282025,5.850853822798852,1.681188814053449,0.2749289015979577,0.3664809584681513,0.03270384434561049,25.0,25.0,25.0,25.0,25.0,25.0,24.0,16.311,0.0,0.0,1.0,1781061003513125431
