timestamp_ns,joint_1_pos,joint_2_pos,joint_3_pos,joint_4_pos,joint_5_pos,joint_6_pos,joint_1_temp,joint_2_temp,joint_3_temp,joint_4_temp,joint_5_temp,joint_6_temp,bus_voltage,bus_current,accel_x,accel_y,accel_z,timestamp_ns
1777834137940985666,275.0936584472656,175.3435516357422,78.51717376708984,243.1045379638672,85.92996978759766,74.1781234741211,24.280000686645508,23.309999465942383,23.309999465942383,22.829999923706055,22.90999984741211,23.6299991607666,23.765974044799805,0.0,-0.16507625579833984,0.04211266711354256,-1.1464512348175049,1777834137555937662
1777834138040645219,275.0936584472656,175.3435516357422,78.51717376708984,243.1045379638672,85.92996978759766,74.1781234741211,24.280000686645508,23.309999465942383,23.309999465942383,22.829999923706055,22.90999984741211,23.6299991607666,23.765974044799805,0.0,-0.16507625579833984,0.04211266711354256,-1.1464512348175049,1777834137555937662
1777834138140647088,23.765974044799805,0.0,-0.16574540734291077,0.03751714900135994,-1.144348382949829,24.280000686645508,74.1781234741211,0.0,0.0,0.0,0.0,0.0,275.0936584472656,175.34336853027344,78.51717376708984,243.1045379638672,85.92996978759766,1777834138140721348
1777834138240650513,23.765974044799805,0.0,-0.16574540734291077,0.03751714900135994,-1.144348382949829,24.280000686645508,74.1781234741211,0.0,0.0,0.0,0.0,0.0,275.0936584472656,175.3434600830078,78.51727294921875,243.1045379638672,85.92996978759766,1777834138140721348
1777834138340620271,23.765974044799805,0.0,-0.16574540734291077,0.03751714900135994,-1.144348382949829,24.280000686645508,74.1781234741211,0.0,0.0,0.0,0.0,0.0,275.0936584472656,175.3434600830078,78.51727294921875,243.1045379638672,85.92996978759766,1777834138140721348
1777834138440653177,23.765974044799805,0.0,-0.1635010987520218,0.038437046110630035,-1.1455789804458618,24.280000686645508,24.360000610351562,23.389999389648438,23.309999465942383,22.829999923706055,22.989999771118164,23.6299991607666,23.765974044799805,0.0,-0.16429424285888672,0.03670215606689453,-1.1458451747894287,1777834138340790531
1777834138540654121,23.765974044799805,0.0,-0.1635010987520218,0.038437046110630035,-1.1455789804458618,24.280000686645508,24.360000610351562,23.389999389648438,23.309999465942383,22.829999923706055,22.989999771118164,23.6299991607666,23.765974044799805,0.0,-0.16429424285888672,0.03670215606689453,-1.1458451747894287,1777834138340790531
1777834138640665712,23.765974044799805,0.0,-0.1634712964296341,0.03716588020324707,-1.1458030939102173,24.280000686645508,24.280000686645508,23.389999389648438,23.309999465942383,22.829999923706055,22.989999771118164,23.6299991607666,23.765974044799805,0.0,-0.16365885734558105,0.040142931044101715,-1.1469447612762451,1777834138540855307
1777834138740649267,23.765974044799805,0.0,-0.1634712964296341,0.03716588020324707,-1.1458030939102173,24.280000686645508,24.280000686645508,23.389999389648438,23.309999465942383,22.829999923706055,22.989999771118164,23.6299991607666,23.765974044799805,0.0,-0.16365885734558105,0.040142931044101715,-1.1469447612762451,1777834138540855307
1777834138840653395,275.0936584472656,175.3434600830078,78.51717376708984,243.1045379638672,85.92996978759766,74.1781234741211,24.280000686645508,23.389999389648438,23.309999465942383,22.829999923706055,22.989999771118164,23.6299991607666,23.76593780517578,0.0,-0.16483743488788605,0.03844499588012695,-1.146190881729126,1777834138765822809
1777834138940664394,275.0936584472656,175.3434600830078,78.51717376708984,243.1045379638672,85.92996978759766,74.1781234741211,24.280000686645508,23.389999389648438,23.309999465942383,22.829999923706055,22.989999771118164,23.6299991607666,23.76593780517578,0.0,-0.16483743488788605,0.03844499588012695,-1.146190881729126,1777834138765822809
1777834139040655837,275.0936584472656,175.3434600830078,78.51717376708984,243.1045379638672,85.92996978759766,74.1781234741211,24.360000610351562,23.309999465942383,23.229999542236328,22.829999923706055,23.06999969482422,23.6299991607666,23.76593780517578,0.0,-0.1640097200870514,0.039449531584978104,-1.1457104682922363,1777834138968473333
1777834139140668799,275.0936584472656,175.3434600830078,78.51717376708984,243.1045379638672,85.92996978759766,74.1781234741211,24.360000610351562,23.309999465942383,23.229999542236328,22.829999923706055,23.06999969482422,23.6299991607666,23.76593780517578,0.0,-0.1640097200870514,0.039449531584978104,-1.1457104682922363,1777834138968473333
1777834139240678520,275.0936584472656,175.3434600830078,78.51717376708984,243.1045379638672,85.92996978759766,74.1781234741211,24.200000762939453,23.309999465942383,23.229999542236328,22.829999923706055,22.989999771118164,23.549999237060547,23.76593780517578,0.0,-0.16500909626483917,0.03864367678761482,-1.1453218460083008,1777834139187695836
1777834139340680334,275.0936584472656,175.3434600830078,78.51717376708984,243.1045379638672,85.92996978759766,74.1781234741211,24.200000762939453,23.309999465942383,23.229999542236328,22.829999923706055,22.989999771118164,23.549999237060547,23.76593780517578,0.0,-0.16500909626483917,0.03864367678761482,-1.1453218460083008,1777834139187695836
1777834139440672648,275.0936584472656,175.3434600830078,78.51717376708984,243.1045379638672,85.92996978759766,74.1781234741211,24.200000762939453,23.309999465942383,23.229999542236328,22.829999923706055,22.989999771118164,23.549999237060547,23.76593780517578,0.0,-0.16500909626483917,0.03864367678761482,-1.1453218460083008,1777834139363125738
1777834139540719313,275.0936584472656,175.3434600830078,78.51717376708984,243.1045379638672,85.92996978759766,74.1781234741211,24.200000762939453,23.309999465942383,23.229999542236328,22.829999923706055,22.989999771118164,23.549999237060547,23.76593780517578,0.0,-0.16500909626483917,0.03864367678761482,-1.1453218460083008,1777834139363125738
1777834139640667738,23.76593780517578,0.0,-0.16271550953388214,0.03776431083679199,-1.146026849746704,24.280000686645508,24.360000610351562,23.309999465942383,23.309999465942383,22.829999923706055,22.989999771118164,23.709999084472656,23.76593780517578,0.0,-0.1624651700258255,0.04138469696044922,-1.14790678024292,1777834139541286463
1777834139740682978,23.76593780517578,0.0,-0.16271550953388214,0.03776431083679199,-1.146026849746704,24.280000686645508,24.360000610351562,23.309999465942383,23.309999465942383,22.829999923706055,22.989999771118164,23.709999084472656,23.76593780517578,0.0,-0.1624651700258255,0.04138469696044922,-1.14790678024292,1777834139541286463
1777834139840638421,275.0936584472656,175.3434600830078,78.51717376708984,243.1045379638672,85.92996978759766,74.1781234741211,24.360000610351562,23.229999542236328,23.309999465942383,22.75,22.989999771118164,23.6299991607666,23.76593780517578,0.0,-0.1649896204471588,0.03651817515492439,-1.1447361707687378,1777834139762130249
1777834139940865280,275.0936584472656,175.3434600830078,78.51717376708984,243.1045379638672,85.92996978759766,74.1781234741211,24.360000610351562,23.229999542236328,23.309999465942383,22.75,22.989999771118164,23.6299991607666,23.76593780517578,0.0,-0.1649896204471588,0.03651817515492439,-1.1447361707687378,1777834139762130249
1777834140041049283,275.0936584472656,175.3434600830078,78.51717376708984,243.1045379638672,85.92996978759766,74.1781234741211,24.280000686645508,23.389999389648438,23.309999465942383,22.75,22.989999771118164,23.6299991607666,23.76593780517578,0.0,-0.1629129946231842,0.04081646353006363,-1.147533655166626,1777834139960216933
1777834140141259983,275.0936584472656,175.3434600830078,78.51717376708984,243.1045379638672,85.92996978759766,74.1781234741211,24.280000686645508,23.389999389648438,23.309999465942383,22.75,22.989999771118164,23.6299991607666,23.76593780517578,0.0,-0.1629129946231842,0.04081646353006363,-1.147533655166626,1777834139960216933
1777834140240361372,275.0936584472656,175.3434600830078,78.51717376708984,243.1045379638672,85.92996978759766,74.1781234741211,24.280000686645508,23.389999389648438,23.309999465942383,22.75,22.989999771118164,23.6299991607666,23.76593780517578,0.0,-0.1629129946231842,0.04081646353006363,-1.147533655166626,1777834140167307317
1777834140340553927,23.76593780517578,0.0,-0.16619403660297394,0.039091505110263824,-1.1450600624084473,24.360000610351562,24.280000686645508,23.389999389648438,23.309999465942383,22.75,22.989999771118164,23.6299991607666,23.76593780517578,0.0,-0.1629129946231842,0.04081646353006363,-1.147533655166626,1777834140341585802
1777834140440498570,23.76593780517578,0.0,-0.16619403660297394,0.039091505110263824,-1.1450600624084473,24.360000610351562,24.280000686645508,23.389999389648438,23.229999542236328,22.829999923706055,22.989999771118164,23.549999237060547,23.76593780517578,0.0,-0.16535957157611847,0.04203081130981445,-1.145370364189148,1777834140341585802
1777834140540424307,23.76593780517578,0.0,-0.16619403660297394,0.039091505110263824,-1.1450600624084473,24.360000610351562,24.280000686645508,23.389999389648438,23.229999542236328,22.829999923706055,22.989999771118164,23.549999237060547,23.76593780517578,0.0,-0.16535957157611847,0.04203081130981445,-1.145370364189148,1777834140341585802
1777834140640360267,275.0936584472656,175.3434600830078,78.51717376708984,243.1045379638672,85.92996978759766,74.1781234741211,24.280000686645508,23.389999389648438,23.229999542236328,22.829999923706055,22.989999771118164,23.549999237060547,23.76593780517578,0.0,-0.16535957157611847,0.04203081130981445,-1.145370364189148,1777834140578219537
1777834140740548111,275.0936584472656,175.3434600830078,78.51717376708984,243.1045379638672,85.92996978759766,74.1781234741211,24.280000686645508,23.309999465942383,23.309999465942383,22.75,22.989999771118164,23.709999084472656,23.76593780517578,0.0,-0.16301710903644562,0.03883758932352066,-1.14577054977417,1777834140578219537
1777834140840473273,275.0936584472656,175.3434600830078,78.51717376708984,243.1045379638672,85.92996978759766,74.1781234741211,24.360000610351562,23.229999542236328,23.469999313354492,22.90999984741211,22.989999771118164,23.709999084472656,23.76593780517578,0.0,-0.1632845401763916,0.039897359907627106,-1.1462358236312866,1777834140761584490
1777834140940417916,275.0936584472656,175.3434600830078,78.51717376708984,243.1045379638672,85.92996978759766,74.1781234741211,24.360000610351562,23.229999542236328,23.469999313354492,22.90999984741211,22.989999771118164,23.709999084472656,23.76593780517578,0.0,-0.1632845401763916,0.039897359907627106,-1.1462358236312866,1777834140761584490
1777834141040358792,275.0936584472656,175.3434600830078,78.51717376708984,243.1045379638672,85.92996978759766,74.1781234741211,24.280000686645508,23.389999389648438,23.389999389648438,22.829999923706055,22.989999771118164,23.6299991607666,23.76593780517578,0.0,-0.16362150013446808,0.037017662078142166,-1.1445573568344116,1777834140963428771
1777834141140540588,275.0936584472656,175.3434600830078,78.51717376708984,243.1045379638672,85.92996978759766,74.1781234741211,24.280000686645508,23.389999389648438,23.389999389648438,22.829999923706055,22.989999771118164,23.6299991607666,23.76593780517578,0.0,-0.16362150013446808,0.037017662078142166,-1.1445573568344116,1777834140963428771
1777834141240720676,275.0936584472656,175.3434600830078,78.51717376708984,243.1045379638672,85.92996978759766,74.1781234741211,24.360000610351562,23.309999465942383,23.229999542236328,22.829999923706055,22.989999771118164,23.709999084472656,23.76593780517578,0.0,-0.16513188183307648,0.03745754435658455,-1.1463689804077148,1777834141205123681
1777834141340921284,275.0936584472656,175.3434600830078,78.51717376708984,243.1045379638672,85.92996978759766,74.1781234741211,24.360000610351562,23.309999465942383,23.229999542236328,22.829999923706055,22.989999771118164,23.709999084472656,23.76593780517578,0.0,-0.16513188183307648,0.03745754435658455,-1.1463689804077148,1777834141205123681
1777834141441083395,275.0936584472656,175.3434600830078,78.51717376708984,243.1045379638672,85.92996978759766,74.1781234741211,24.360000610351562,23.309999465942383,23.229999542236328,22.829999923706055,22.989999771118164,23.709999084472656,23.76593780517578,0.0,-0.16513188183307648,0.03745754435658455,-1.1463689804077148,1777834141380258610
1777834141540361493,275.0936584472656,175.3434600830078,78.51717376708984,243.1045379638672,85.92996978759766,74.1781234741211,24.280000686645508,23.309999465942383,23.229999542236328,22.829999923706055,22.989999771118164,23.709999084472656,23.76593780517578,0.0,-0.1632932722568512,0.04080136492848396,-1.1477128267288208,1777834141380258610
1777834141640536666,275.0936584472656,175.3434600830078,78.51717376708984,243.1045379638672,85.92996978759766,74.1781234741211,24.360000610351562,23.389999389648438,23.309999465942383,22.829999923706055,22.989999771118164,23.6299991607666,23.76593780517578,0.0,-0.16341884434223175,0.039125680923461914,-1.1458030939102173,1777834141589976898
1777834141740470177,275.0936584472656,175.3434600830078,78.51717376708984,243.1045379638672,85.92996978759766,74.1781234741211,24.360000610351562,23.389999389648438,23.309999465942383,22.829999923706055,22.989999771118164,23.6299991607666,23.76593780517578,0.0,-0.16341884434223175,0.039125680923461914,-1.1458030939102173,1777834141589976898
1777834141840430644,275.0936584472656,175.3434600830078,78.51717376708984,243.1045379638672,85.92996978759766,74.1781234741211,24.280000686645508,23.309999465942383,23.309999465942383,22.90999984741211,22.90999984741211,23.549999237060547,23.76593780517578,0.0,-0.16405422985553741,0.040345191955566406,-1.146317720413208,1777834141764691582
1777834141940589917,275.0936584472656,175.3434600830078,78.51717376708984,243.1045379638672,85.92996978759766,74.1781234741211,24.280000686645508,23.309999465942383,23.309999465942383,22.90999984741211,22.90999984741211,23.549999237060547,23.76593780517578,0.0,-0.16405422985553741,0.040345191955566406,-1.146317720413208,1777834141764691582
1777834142040531925,275.0936584472656,175.3434600830078,78.51717376708984,243.1045379638672,85.92996978759766,74.1781234741211,24.280000686645508,23.389999389648438,23.309999465942383,22.829999923706055,22.989999771118164,23.549999237060547,23.76593780517578,0.0,-0.16524434089660645,0.04021763801574707,-1.1457955837249756,1777834141960563254
1777834142140449741,275.0936584472656,175.3434600830078,78.51717376708984,243.1045379638672,85.92996978759766,74.1781234741211,24.280000686645508,23.389999389648438,23.309999465942383,22.829999923706055,22.989999771118164,23.549999237060547,23.76593780517578,0.0,-0.16524434089660645,0.04021763801574707,-1.1457955837249756,1777834141960563254
1777834142240396350,275.0936584472656,175.3434600830078,78.51717376708984,243.1045379638672,85.92996978759766,74.1781234741211,24.280000686645508,23.389999389648438,23.309999465942383,22.829999923706055,22.989999771118164,23.549999237060547,23.76593780517578,0.0,-0.16524434089660645,0.04021763801574707,-1.1457955837249756,1777834141960563254
1777834142340581151,275.0936584472656,175.3434600830078,78.51717376708984,243.1045379638672,85.92996978759766,74.1781234741211,74.1781234741211,0.0,0.0,0.0,0.0,0.0,275.0936584472656,175.3434600830078,78.51717376708984,243.1045379638672,85.92996978759766,1777834141960563254
1777834142440544772,23.76593780517578,0.0,-0.16451676189899445,0.040113527327775955,-1.1461222171783447,24.360000610351562,24.280000686645508,23.389999389648438,23.309999465942383,22.829999923706055,22.989999771118164,23.709999084472656,23.76593780517578,0.0,-0.16398747265338898,0.04009842872619629,-1.1450750827789307,1777834142342203004
1777834142540694194,23.76593780517578,0.0,-0.16451676189899445,0.040113527327775955,-1.1461222171783447,24.360000610351562,24.280000686645508,23.389999389648438,23.309999465942383,22.829999923706055,22.989999771118164,23.709999084472656,23.76593780517578,0.0,-0.16398747265338898,0.04009842872619629,-1.1450750827789307,1777834142342203004
1777834142640899644,275.0936584472656,175.3434600830078,78.51717376708984,243.1045379638672,85.92996978759766,74.1781234741211,24.280000686645508,23.389999389648438,23.389999389648438,22.75,22.989999771118164,23.6299991607666,23.76593780517578,0.0,-0.16413608193397522,0.03987471014261246,-1.1461091041564941,1777834142573126849
1777834142741067970,275.0936584472656,175.3434600830078,78.51717376708984,243.1045379638672,85.92996978759766,74.1781234741211,24.280000686645508,23.389999389648438,23.389999389648438,22.75,22.989999771118164,23.6299991607666,23.76593780517578,0.0,-0.16413608193397522,0.03987471014261246,-1.1461091041564941,1777834142573126849
1777834142840563445,275.0936584472656,175.3434600830078,78.51717376708984,243.1045379638672,85.92996978759766,74.1781234741211,24.280000686645508,23.309999465942383,23.309999465942383,22.829999923706055,22.989999771118164,23.6299991607666,23.76593780517578,0.0,-0.16406217217445374,0.03943244367837906,-1.1456433534622192,1777834142759992717
1777834142940751492,275.0936584472656,175.3434600830078,78.51717376708984,243.1045379638672,85.92996978759766,74.1781234741211,24.280000686645508,23.309999465942383,23.309999465942383,22.829999923706055,22.989999771118164,23.6299991607666,23.76593780517578,0.0,-0.16406217217445374,0.03943244367837906,-1.1456433534622192,1777834142759992717
1777834143040906387,275.0936584472656,175.3434600830078,78.51717376708984,243.1045379638672,85.92996978759766,74.1781234741211,24.360000610351562,23.309999465942383,23.229999542236328,22.829999923706055,22.90999984741211,23.709999084472656,23.76593780517578,0.0,-0.16441980004310608,0.04019538313150406,-1.1452245712280273,1777834142957245157
1777834143141101596,275.0936584472656,175.3434600830078,78.51717376708984,243.1045379638672,85.92996978759766,74.1781234741211,24.360000610351562,23.309999465942383,23.229999542236328,22.829999923706055,22.90999984741211,23.709999084472656,23.76593780517578,0.0,-0.16441980004310608,0.04019538313150406,-1.1452245712280273,1777834142957245157
1777834143241289569,275.0936584472656,175.3434600830078,78.51717376708984,243.1045379638672,85.92996978759766,74.1781234741211,24.280000686645508,23.389999389648438,23.389999389648438,22.829999923706055,22.989999771118164,23.6299991607666,23.76593780517578,0.0,-0.16547878086566925,0.041195549070835114,-1.1446634531021118,1777834143155676590
1777834143340424871,275.0936584472656,175.3434600830078,78.51717376708984,243.1045379638672,85.92996978759766,74.1781234741211,24.280000686645508,23.389999389648438,23.389999389648438,22.829999923706055,22.989999771118164,23.6299991607666,23.76593780517578,0.0,-0.16547878086566925,0.041195549070835114,-1.1446634531021118,1777834143155676590
1777834143440595962,275.0936584472656,175.3434600830078,78.51717376708984,243.1045379638672,85.92996978759766,74.1781234741211,24.280000686645508,23.389999389648438,23.389999389648438,22.829999923706055,23.06999969482422,23.6299991607666,23.76593780517578,0.0,-0.1645616590976715,0.03728628158569336,-1.1445958614349365,1777834143364365934
1777834143540546745,275.0936584472656,175.3434600830078,78.51717376708984,243.1045379638672,85.92996978759766,74.1781234741211,24.280000686645508,23.389999389648438,23.389999389648438,22.829999923706055,23.06999969482422,23.6299991607666,23.76593780517578,0.0,-0.1645616590976715,0.03728628158569336,-1.1445958614349365,1777834143364365934
1777834143640477380,275.0936584472656,175.3434600830078,78.51717376708984,243.1045379638672,85.92996978759766,74.1781234741211,24.280000686645508,23.389999389648438,23.309999465942383,22.75,23.06999969482422,23.6299991607666,23.76593780517578,0.0,-0.16396482288837433,0.0376737117767334,-1.1471242904663086,1777834143571929140
1777834143740423284,275.0936584472656,175.3434600830078,78.51717376708984,243.1045379638672,85.92996978759766,74.1781234741211,24.280000686645508,23.389999389648438,23.309999465942383,22.75,23.06999969482422,23.6299991607666,23.76593780517578,0.0,-0.16396482288837433,0.0376737117767334,-1.1471242904663086,1777834143571929140
1777834143840596805,275.0936584472656,175.3434600830078,78.51717376708984,243.1045379638672,85.92996978759766,74.1781234741211,24.280000686645508,23.309999465942383,23.389999389648438,22.829999923706055,22.989999771118164,23.549999237060547,23.76538848876953,0.0,-0.16418099403381348,0.039091505110263824,-1.1446932554244995,1777834143756560245
1777834143940535734,275.0936584472656,175.3434600830078,78.51717376708984,243.1045379638672,85.92996978759766,74.1781234741211,24.280000686645508,23.309999465942383,23.389999389648438,22.829999923706055,22.989999771118164,23.549999237060547,23.76538848876953,0.0,-0.16418099403381348,0.039091505110263824,-1.1446932554244995,1777834143756560245
1777834144040471508,275.0936584472656,175.3434600830078,78.51717376708984,243.1045379638672,85.92996978759766,74.1781234741211,24.360000610351562,23.309999465942383,23.309999465942383,22.829999923706055,23.06999969482422,23.709999084472656,23.76538848876953,0.0,-0.1645318567752838,0.03765225410461426,-1.1446765661239624,1777834143951941545
1777834144140423145,275.0936584472656,175.3434600830078,78.51717376708984,243.1045379638672,85.92996978759766,74.1781234741211,24.360000610351562,23.309999465942383,23.309999465942383,22.829999923706055,23.06999969482422,23.709999084472656,23.76538848876953,0.0,-0.1645318567752838,0.03765225410461426,-1.1446765661239624,1777834143951941545
1777834144240586499,275.0936584472656,175.3434600830078,78.51717376708984,243.1045379638672,85.92996978759766,74.1781234741211,24.360000610351562,23.309999465942383,23.389999389648438,22.829999923706055,22.989999771118164,23.709999084472656,23.76538848876953,0.0,-0.16413608193397522,0.03702481463551521,-1.146615743637085,1777834144155616707
1777834144340783619,275.0936584472656,175.3434600830078,78.51717376708984,243.1045379638672,85.92996978759766,74.1781234741211,24.360000610351562,23.309999465942383,23.389999389648438,22.829999923706055,22.989999771118164,23.709999084472656,23.76538848876953,0.0,-0.16413608193397522,0.03702481463551521,-1.146615743637085,1777834144155616707
1777834144440758520,275.0936584472656,175.3434600830078,78.51717376708984,243.1045379638672,85.92996978759766,74.1781234741211,24.360000610351562,23.309999465942383,23.389999389648438,22.829999923706055,22.989999771118164,23.709999084472656,23.76538848876953,0.0,-0.16413608193397522,0.03702481463551521,-1.146615743637085,1777834144377195984
1777834144540678006,275.0936584472656,175.3434600830078,78.51717376708984,243.1045379638672,85.92996978759766,74.1781234741211,24.280000686645508,23.309999465942383,23.389999389648438,22.75,23.06999969482422,23.709999084472656,23.76538848876953,0.0,-0.16374826431274414,0.03796497732400894,-1.147138237953186,1777834144377195984
1777834144640493636,275.0936584472656,175.3434600830078,78.51717376708984,243.1045379638672,85.92996978759766,74.1781234741211,24.360000610351562,23.389999389648438,23.389999389648438,22.829999923706055,22.989999771118164,23.709999084472656,23.76538848876953,0.0,-0.16419687867164612,0.04217227175831795,-1.1472876071929932,1777834144565816392
1777834144740464159,275.0936584472656,175.3434600830078,78.51717376708984,243.1045379638672,85.92996978759766,74.1781234741211,24.360000610351562,23.389999389648438,23.389999389648438,22.829999923706055,22.989999771118164,23.709999084472656,23.76538848876953,0.0,-0.16419687867164612,0.04217227175831795,-1.1472876071929932,1777834144565816392
1777834144841392310,275.0936584472656,175.3434600830078,78.51717376708984,243.1045379638672,85.92996978759766,74.1781234741211,24.360000610351562,23.389999389648438,23.389999389648438,22.90999984741211,23.06999969482422,23.709999084472656,23.76538848876953,0.0,-0.1650834083557129,0.04084467887878418,-1.1469296216964722,1777834144778758164
1777834144941245731,275.0936584472656,175.3434600830078,78.51717376708984,243.1045379638672,85.92996978759766,74.1781234741211,24.360000610351562,23.389999389648438,23.389999389648438,22.90999984741211,23.06999969482422,23.709999084472656,23.76538848876953,0.0,-0.1650834083557129,0.04084467887878418,-1.1469296216964722,1777834144778758164
1777834145041115923,275.0936584472656,175.3434600830078,78.51717376708984,243.1045379638672,85.92996978759766,74.1781234741211,24.280000686645508,23.389999389648438,23.309999465942383,22.75,22.989999771118164,23.6299991607666,23.76538848876953,0.0,-0.16403992474079132,0.04126230627298355,-1.1469296216964722,1777834144963334559
1777834145141039027,275.0936584472656,175.3434600830078,78.51717376708984,243.1045379638672,85.92996978759766,74.1781234741211,24.280000686645508,23.389999389648438,23.309999465942383,22.75,22.989999771118164,23.6299991607666,23.76538848876953,0.0,-0.16403992474079132,0.04126230627298355,-1.1469296216964722,1777834144963334559
1777834145240926639,275.0936584472656,175.3434600830078,78.51717376708984,243.1045379638672,85.92996978759766,74.1781234741211,24.280000686645508,23.389999389648438,23.389999389648438,22.829999923706055,23.06999969482422,23.6299991607666,23.76538848876953,0.0,-0.16383011639118195,0.0363612174987793,-1.1452245712280273,1777834145174793954
1777834145340759597,275.0936584472656,175.3434600830078,78.51717376708984,243.1045379638672,85.92996978759766,74.1781234741211,24.280000686645508,23.389999389648438,23.389999389648438,22.829999923706055,23.06999969482422,23.6299991607666,23.76538848876953,0.0,-0.16383011639118195,0.0363612174987793,-1.1452245712280273,1777834145174793954
1777834145440654835,275.0936584472656,175.3434600830078,78.51717376708984,243.1045379638672,85.92996978759766,74.1781234741211,24.280000686645508,23.389999389648438,23.389999389648438,22.829999923706055,23.06999969482422,23.6299991607666,23.76538848876953,0.0,-0.16383011639118195,0.0363612174987793,-1.1452245712280273,1777834145386189881
1777834145540556845,275.0936584472656,175.3434600830078,78.51717376708984,243.1045379638672,85.92996978759766,74.1781234741211,24.280000686645508,23.389999389648438,23.389999389648438,22.829999923706055,23.06999969482422,23.6299991607666,23.76538848876953,0.0,-0.16383011639118195,0.0363612174987793,-1.1452245712280273,1777834145386189881
1777834145640451600,275.0936584472656,175.3434600830078,78.51717376708984,243.1045379638672,85.92996978759766,74.1781234741211,24.280000686645508,23.389999389648438,23.389999389648438,22.829999923706055,23.06999969482422,23.6299991607666,23.76538848876953,0.0,-0.16383011639118195,0.0363612174987793,-1.1452245712280273,1777834145386189881
1777834145741342202,275.0936584472656,175.3434600830078,78.51717376708984,243.1045379638672,85.92996978759766,74.1781234741211,24.280000686645508,23.389999389648438,23.389999389648438,22.829999923706055,23.06999969482422,23.6299991607666,23.76538848876953,0.0,-0.16383011639118195,0.0363612174987793,-1.1452245712280273,1777834145386189881
1777834145841256010,275.0936584472656,175.3434600830078,78.51717376708984,243.1045379638672,85.92996978759766,74.1781234741211,24.280000686645508,23.389999389648438,23.389999389648438,22.829999923706055,23.06999969482422,23.6299991607666,23.76538848876953,0.0,-0.16383011639118195,0.0363612174987793,-1.1452245712280273,1777834145386189881
1777834145941135831,275.0936584472656,175.3434600830078,78.51717376708984,243.1045379638672,85.92996978759766,74.1781234741211,24.280000686645508,23.389999389648438,23.389999389648438,22.829999923706055,23.06999969482422,23.6299991607666,23.76538848876953,0.0,-0.16383011639118195,0.0363612174987793,-1.1452245712280273,1777834145386189881
1777834146041037433,275.0936584472656,175.3434600830078,78.51717376708984,243.1045379638672,85.92996978759766,74.1781234741211,24.280000686645508,23.389999389648438,23.389999389648438,22.829999923706055,23.06999969482422,23.6299991607666,23.76538848876953,0.0,-0.16383011639118195,0.0363612174987793,-1.1452245712280273,1777834145386189881
1777834146140935027,275.0936584472656,175.3434600830078,78.51717376708984,243.1045379638672,85.92996978759766,74.1781234741211,24.280000686645508,23.309999465942383,23.469999313354492,22.829999923706055,22.989999771118164,23.709999084472656,23.76538848876953,0.0,-0.1632412225008011,0.03820578008890152,-1.145765781402588,1777834145386189881
1777834146240841303,275.0936584472656,175.3434600830078,78.51717376708984,243.1045379638672,85.92996978759766,74.1781234741211,24.360000610351562,23.389999389648438,23.309999465942383,22.90999984741211,22.989999771118164,23.549999237060547,23.76538848876953,0.0,-0.16489267349243164,0.03977775573730469,-1.1464221477508545,1777834146156747806
1777834146340733610,275.0936584472656,175.3434600830078,78.51717376708984,243.1045379638672,85.92996978759766,74.1781234741211,24.360000610351562,23.389999389648438,23.309999465942383,22.90999984741211,22.989999771118164,23.549999237060547,23.76538848876953,0.0,-0.16489267349243164,0.03977775573730469,-1.1464221477508545,1777834146156747806
1777834146440625118,275.0938415527344,175.3434600830078,78.51717376708984,243.1045379638672,85.92996978759766,74.1781234741211,24.280000686645508,23.389999389648438,23.389999389648438,22.90999984741211,22.989999771118164,23.709999084472656,23.76538848876953,0.0,-0.16421079635620117,0.03838260844349861,-1.1450449228286743,1777834146356811760
1777834146540544400,275.0938415527344,175.3434600830078,78.51717376708984,243.1045379638672,85.92996978759766,74.1781234741211,24.280000686645508,23.389999389648438,23.389999389648438,22.90999984741211,22.989999771118164,23.709999084472656,23.76538848876953,0.0,-0.16421079635620117,0.03838260844349861,-1.1450449228286743,1777834146356811760
1777834146640426800,275.0936584472656,175.3434600830078,78.51717376708984,243.1045379638672,85.92996978759766,74.1781234741211,24.280000686645508,23.389999389648438,23.389999389648438,22.829999923706055,22.989999771118164,23.6299991607666,23.76538848876953,0.0,-0.16428668797016144,0.03836234286427498,-1.1463398933410645,1777834146556873247
1777834146741312299,275.0936584472656,175.3434600830078,78.51717376708984,243.1045379638672,85.92996978759766,74.1781234741211,24.280000686645508,23.389999389648438,23.389999389648438,22.829999923706055,22.989999771118164,23.6299991607666,23.76538848876953,0.0,-0.16428668797016144,0.03836234286427498,-1.1463398933410645,1777834146556873247
1777834146841233139,23.76538848876953,0.0,-0.16427913308143616,0.03797212988138199,-1.148186445236206,24.280000686645508,74.1781234741211,0.0,0.0,0.0,0.0,0.0,275.0936584472656,175.3434600830078,78.51717376708984,243.1045379638672,85.92996978759766,1777834146756963322
1777834146941123182,23.76538848876953,0.0,-0.16427913308143616,0.03797212988138199,-1.148186445236206,24.280000686645508,74.1781234741211,0.0,0.0,0.0,0.0,0.0,275.0936584472656,175.3434600830078,78.51717376708984,243.1045379638672,85.92996978759766,1777834146756963322
1777834147041018977,23.76538848876953,0.0,-0.16349473595619202,0.03674149513244629,-1.1477227210998535,24.360000610351562,24.200000762939453,23.229999542236328,23.389999389648438,22.829999923706055,22.989999771118164,23.6299991607666,23.76538848876953,0.0,-0.16539692878723145,0.03787517547607422,-1.1446912288665771,1777834146957043806
1777834147140918760,23.76538848876953,0.0,-0.16349473595619202,0.03674149513244629,-1.1477227210998535,24.360000610351562,24.200000762939453,23.229999542236328,23.389999389648438,22.829999923706055,22.989999771118164,23.6299991607666,23.76538848876953,0.0,-0.16539692878723145,0.03787517547607422,-1.1446912288665771,1777834146957043806
1777834147240807931,23.76538848876953,0.0,-0.16360679268836975,0.04162033274769783,-1.1449999809265137,24.360000610351562,24.280000686645508,23.309999465942383,23.389999389648438,22.829999923706055,22.989999771118164,23.709999084472656,23.76538848876953,0.0,-0.16341248154640198,0.038278497755527496,-1.1468327045440674,1777834147157113381
1777834147340724690,23.76538848876953,0.0,-0.16360679268836975,0.04162033274769783,-1.1449999809265137,24.360000610351562,24.280000686645508,23.309999465942383,23.389999389648438,22.829999923706055,22.989999771118164,23.709999084472656,23.76538848876953,0.0,-0.16341248154640198,0.038278497755527496,-1.1468327045440674,1777834147157113381
1777834147440606403,23.76538848876953,0.0,-0.16451120376586914,0.038890041410923004,-1.1435651779174805,24.360000610351562,24.280000686645508,23.309999465942383,23.389999389648438,22.75,22.989999771118164,23.6299991607666,23.76538848876953,0.0,-0.16514697670936584,0.03901680186390877,-1.1447603702545166,1777834147357189673
1777834147540508895,23.76538848876953,0.0,-0.16451120376586914,0.038890041410923004,-1.1435651779174805,24.360000610351562,24.280000686645508,23.309999465942383,23.389999389648438,22.75,22.989999771118164,23.6299991607666,23.76538848876953,0.0,-0.16514697670936584,0.03901680186390877,-1.1447603702545166,1777834147357189673
1777834147640422054,275.0936584472656,175.3434600830078,78.51717376708984,243.1045379638672,85.92996978759766,74.1781234741211,24.280000686645508,23.389999389648438,23.389999389648438,22.90999984741211,23.06999969482422,23.709999084472656,23.76538848876953,0.0,-0.1641746312379837,0.03575921058654785,-1.1446614265441895,1777834147582927560
1777834147741299428,275.0936584472656,175.3434600830078,78.51717376708984,243.1045379638672,85.92996978759766,74.1781234741211,24.280000686645508,23.389999389648438,23.389999389648438,22.90999984741211,23.06999969482422,23.709999084472656,23.76538848876953,0.0,-0.1641746312379837,0.03575921058654785,-1.1446614265441895,1777834147582927560
1777834147841212365,275.0936584472656,175.3434600830078,78.51717376708984,243.1045379638672,85.92996978759766,74.1781234741211,24.360000610351562,23.389999389648438,23.389999389648438,22.829999923706055,23.06999969482422,23.709999084472656,23.76538848876953,0.0,-0.16336798667907715,0.036532480269670486,-1.146190881729126,1777834147778667047
1777834147941097529,275.0936584472656,175.3434600830078,78.51717376708984,243.1045379638672,85.92996978759766,74.1781234741211,24.360000610351562,23.389999389648438,23.389999389648438,22.829999923706055,23.06999969482422,23.709999084472656,23.76538848876953,0.0,-0.16336798667907715,0.036532480269670486,-1.146190881729126,1777834147778667047
1777834148041008295,275.0936584472656,175.3434600830078,78.51717376708984,243.1045379638672,85.92996978759766,74.1781234741211,24.360000610351562,23.389999389648438,23.389999389648438,22.75,23.06999969482422,23.6299991607666,23.76538848876953,0.0,-0.1637335568666458,0.04077116400003433,-1.1469669342041016,1777834147981855046
1777834148140907057,275.0936584472656,175.3434600830078,78.51717376708984,243.1045379638672,85.92996978759766,74.1781234741211,24.360000610351562,23.389999389648438,23.389999389648438,22.75,23.06999969482422,23.6299991607666,23.76538848876953,0.0,-0.1637335568666458,0.04077116400003433,-1.1469669342041016,1777834147981855046
1777834148240793910,275.0936584472656,175.3434600830078,78.51717376708984,243.1045379638672,85.92996978759766,74.1781234741211,24.360000610351562,23.389999389648438,23.389999389648438,22.75,23.06999969482422,23.6299991607666,23.76538848876953,0.0,-0.1637335568666458,0.04077116400003433,-1.1469669342041016,1777834148217787285
1777834148340715065,275.0936584472656,175.3434600830078,78.51717376708984,243.1045379638672,85.92996978759766,74.1781234741211,24.280000686645508,23.389999389648438,23.389999389648438,22.829999923706055,22.989999771118164,23.709999084472656,23.76538848876953,0.0,-0.16430774331092834,0.0410306453704834,-1.1473265886306763,1777834148217787285
1777834148440605776,275.0936584472656,175.3434600830078,78.51717376708984,243.1045379638672,85.92996978759766,74.1781234741211,24.360000610351562,23.389999389648438,23.309999465942383,22.90999984741211,22.989999771118164,23.709999084472656,23.76538848876953,0.0,-0.16325433552265167,0.03644784167408943,-1.1458404064178467,1777834148386820890
1777834148540501979,275.0936584472656,175.3434600830078,78.51717376708984,243.1045379638672,85.92996978759766,74.1781234741211,24.360000610351562,23.389999389648438,23.309999465942383,22.90999984741211,22.989999771118164,23.709999084472656,23.76538848876953,0.0,-0.16325433552265167,0.03644784167408943,-1.1458404064178467,1777834148386820890
1777834148640387792,275.0936584472656,175.3434600830078,78.51717376708984,243.1045379638672,85.92996978759766,74.1781234741211,24.360000610351562,23.389999389648438,23.309999465942383,22.90999984741211,22.989999771118164,23.709999084472656,23.76538848876953,0.0,-0.16325433552265167,0.03644784167408943,-1.1458404064178467,1777834148608352693
1777834148741303532,275.0936584472656,175.3434600830078,78.51717376708984,243.1045379638672,85.92996978759766,74.1781234741211,24.360000610351562,23.389999389648438,23.469999313354492,22.829999923706055,22.989999771118164,23.6299991607666,23.76538848876953,0.0,-0.16325592994689941,0.036868251860141754,-1.1459596157073975,1777834148608352693
1777834148841178473,275.0936584472656,175.3434600830078,78.51717376708984,243.1045379638672,85.92996978759766,74.1781234741211,24.360000610351562,23.389999389648438,23.469999313354492,22.829999923706055,22.989999771118164,23.6299991607666,23.76538848876953,0.0,-0.16325592994689941,0.036868251860141754,-1.1459596157073975,1777834148788641113
1777834148941083433,275.0936584472656,175.3434600830078,78.51717376708984,243.1045379638672,85.92996978759766,74.1781234741211,24.360000610351562,23.389999389648438,23.469999313354492,22.829999923706055,22.989999771118164,23.6299991607666,23.76538848876953,0.0,-0.16325592994689941,0.036868251860141754,-1.1459596157073975,1777834148788641113
1777834149040976184,275.0936584472656,175.3434600830078,78.51717376708984,243.1045379638672,85.92996978759766,74.1781234741211,24.360000610351562,23.389999389648438,23.469999313354492,22.829999923706055,22.989999771118164,23.6299991607666,23.76538848876953,0.0,-0.16325592994689941,0.036868251860141754,-1.1459596157073975,1777834148788641113
1777834149140862740,275.0936584472656,175.3434600830078,78.51717376708984,243.1045379638672,85.92996978759766,74.1781234741211,24.360000610351562,23.389999389648438,23.469999313354492,22.829999923706055,22.989999771118164,23.6299991607666,23.76538848876953,0.0,-0.16325592994689941,0.036868251860141754,-1.1459596157073975,1777834148788641113
1777834149240760408,23.766193389892578,0.0,-0.16519546508789062,0.04209756851196289,-1.1461464166641235,24.280000686645508,74.1781234741211,0.0,0.0,0.0,0.0,0.0,275.0936584472656,175.3434600830078,78.51717376708984,243.1045379638672,85.92996978759766,1777834149166729412
1777834149340653253,23.766193389892578,0.0,-0.16519546508789062,0.04209756851196289,-1.1461464166641235,24.280000686645508,74.1781234741211,0.0,0.0,0.0,0.0,0.0,275.0936584472656,175.3434600830078,78.51717376708984,243.1045379638672,85.92996978759766,1777834149166729412
1777834149440560160,23.766193389892578,0.0,-0.1647031307220459,0.03722667694091797,-1.1445200443267822,24.280000686645508,24.280000686645508,23.389999389648438,23.389999389648438,22.829999923706055,22.989999771118164,23.709999084472656,23.766193389892578,0.0,-0.1649375706911087,0.03822604566812515,-1.1454228162765503,1777834149364745850
1777834149540463060,23.766193389892578,0.0,-0.1647031307220459,0.03722667694091797,-1.1445200443267822,24.280000686645508,24.280000686645508,23.389999389648438,23.389999389648438,22.829999923706055,22.989999771118164,23.709999084472656,23.766193389892578,0.0,-0.1649375706911087,0.03822604566812515,-1.1454228162765503,1777834149364745850
1777834149641335350,23.766193389892578,0.0,-0.16506114602088928,0.03638029098510742,-1.1443642377853394,24.360000610351562,24.280000686645508,23.469999313354492,23.389999389648438,22.90999984741211,23.06999969482422,23.709999084472656,23.766193389892578,0.0,-0.16366639733314514,0.038077034056186676,-1.1450151205062866,1777834149564812531
1777834149741269344,23.766193389892578,0.0,-0.16506114602088928,0.03638029098510742,-1.1443642377853394,24.360000610351562,24.280000686645508,23.469999313354492,23.389999389648438,22.90999984741211,23.06999969482422,23.709999084472656,23.766193389892578,0.0,-0.16366639733314514,0.038077034056186676,-1.1450151205062866,1777834149564812531
1777834149841142412,275.0936584472656,175.3434600830078,78.51717376708984,243.1045379638672,85.92996978759766,74.1781234741211,24.280000686645508,23.469999313354492,23.389999389648438,22.90999984741211,23.06999969482422,23.709999084472656,23.766193389892578,0.0,-0.16366639733314514,0.038077034056186676,-1.1450151205062866,1777834149801226515
1777834149941037668,275.0936584472656,175.3434600830078,78.51717376708984,243.1045379638672,85.92996978759766,74.1781234741211,24.280000686645508,23.469999313354492,23.389999389648438,22.90999984741211,23.06999969482422,23.709999084472656,23.766193389892578,0.0,-0.16366639733314514,0.038077034056186676,-1.1450151205062866,1777834149801226515
1777834150040942850,23.766193389892578,0.0,-0.16312916576862335,0.03841996192932129,-1.1463994979858398,24.360000610351562,24.360000610351562,23.309999465942383,23.389999389648438,22.829999923706055,22.90999984741211,23.709999084472656,23.766193389892578,0.0,-0.16413608193397522,0.038691360503435135,-1.1449825763702393,1777834149964951125
1777834150140836325,23.766193389892578,0.0,-0.16312916576862335,0.03841996192932129,-1.1463994979858398,24.360000610351562,24.360000610351562,23.309999465942383,23.389999389648438,22.829999923706055,22.90999984741211,23.709999084472656,23.766193389892578,0.0,-0.16413608193397522,0.038691360503435135,-1.1449825763702393,1777834149964951125
1777834150240740171,23.766193389892578,0.0,-0.16312916576862335,0.03841996192932129,-1.1463994979858398,24.360000610351562,24.360000610351562,23.309999465942383,23.389999389648438,22.829999923706055,22.90999984741211,23.709999084472656,23.766193389892578,0.0,-0.16413608193397522,0.038691360503435135,-1.1449825763702393,1777834149964951125
1777834150340649119,23.766193389892578,0.0,-0.16312916576862335,0.03841996192932129,-1.1463994979858398,24.360000610351562,74.1781234741211,0.0,0.0,0.0,0.0,0.0,275.0936584472656,175.3434600830078,78.51717376708984,243.1045379638672,85.92996978759766,1777834149964951125
1777834150440539200,23.766193389892578,0.0,-0.16521413624286652,0.04077712446451187,-1.1469221115112305,24.280000686645508,24.360000610351562,23.469999313354492,23.389999389648438,22.75,22.989999771118164,23.709999084472656,23.766193389892578,0.0,-0.16380786895751953,0.03883758932352066,-1.145575761795044,1777834150365108791
1777834150540429484,23.766193389892578,0.0,-0.16521413624286652,0.04077712446451187,-1.1469221115112305,24.280000686645508,24.360000610351562,23.469999313354492,23.389999389648438,22.75,22.989999771118164,23.709999084472656,23.766193389892578,0.0,-0.16380786895751953,0.03883758932352066,-1.145575761795044,1777834150365108791
1777834150641310197,23.766193389892578,0.0,-0.16521413624286652,0.04077712446451187,-1.1469221115112305,24.280000686645508,24.360000610351562,23.469999313354492,23.389999389648438,22.75,22.989999771118164,23.709999084472656,23.766193389892578,0.0,-0.16380786895751953,0.03883758932352066,-1.145575761795044,1777834150365108791
1777834150741212466,23.766193389892578,0.0,-0.16521413624286652,0.04077712446451187,-1.1469221115112305,24.280000686645508,74.1781234741211,0.0,0.0,0.0,0.0,0.0,275.0936584472656,175.3434600830078,78.51717376708984,243.1045379638672,85.92996978759766,1777834150365108791
1777834150841130301,23.766193389892578,0.0,-0.1632634699344635,0.04024028778076172,-1.1466903686523438,24.280000686645508,24.360000610351562,23.309999465942383,23.389999389648438,22.829999923706055,22.989999771118164,23.6299991607666,23.766193389892578,0.0,-0.1629650592803955,0.03860950469970703,-1.145728349685669,1777834150765297105
1777834150940998861,23.766193389892578,0.0,-0.1632634699344635,0.04024028778076172,-1.1466903686523438,24.280000686645508,24.360000610351562,23.309999465942383,23.389999389648438,22.829999923706055,22.989999771118164,23.6299991607666,23.766193389892578,0.0,-0.1629650592803955,0.03860950469970703,-1.145728349685669,1777834150765297105
1777834151041059529,275.0936584472656,175.3434600830078,78.51717376708984,243.1045379638672,85.92996978759766,74.1781234741211,24.360000610351562,23.309999465942383,23.389999389648438,22.829999923706055,22.989999771118164,23.6299991607666,23.766193389892578,0.0,-0.1629650592803955,0.03860950469970703,-1.145728349685669,1777834150992066755
1777834151141106153,275.0936584472656,175.3434600830078,78.51717376708984,243.1045379638672,85.92996978759766,74.1781234741211,24.360000610351562,23.309999465942383,23.389999389648438,22.829999923706055,22.989999771118164,23.6299991607666,23.766193389892578,0.0,-0.1629650592803955,0.03860950469970703,-1.145728349685669,1777834150992066755
1777834151241154205,23.766193389892578,0.0,-0.1630544662475586,0.03813107684254646,-1.1464444398880005,24.360000610351562,24.360000610351562,23.309999465942383,23.389999389648438,22.829999923706055,22.989999771118164,23.6299991607666,23.766193389892578,0.0,-0.1629650592803955,0.03860950469970703,-1.145728349685669,1777834151165402045
1777834151341211905,23.766193389892578,0.0,-0.1630544662475586,0.03813107684254646,-1.1464444398880005,24.360000610351562,24.360000610351562,23.309999465942383,23.389999389648438,22.829999923706055,22.989999771118164,23.6299991607666,23.766193389892578,0.0,-0.1629650592803955,0.03860950469970703,-1.145728349685669,1777834151165402045
1777834151441140518,23.766193389892578,0.0,-0.1654239445924759,0.03862937167286873,-1.1454970836639404,24.360000610351562,24.360000610351562,23.309999465942383,23.389999389648438,22.90999984741211,23.06999969482422,23.709999084472656,23.766193389892578,0.0,-0.16402442753314972,0.03590623289346695,-1.145370364189148,1777834151365508280
1777834151541215861,23.766193389892578,0.0,-0.1654239445924759,0.03862937167286873,-1.1454970836639404,24.360000610351562,24.360000610351562,23.309999465942383,23.389999389648438,22.90999984741211,23.06999969482422,23.709999084472656,23.766193389892578,0.0,-0.16402442753314972,0.03590623289346695,-1.145370364189148,1777834151365508280
1777834151640721873,275.0936584472656,175.3434600830078,78.51717376708984,243.1045379638672,85.92996978759766,74.1781234741211,24.280000686645508,23.389999389648438,23.389999389648438,22.90999984741211,22.989999771118164,23.709999084472656,23.766193389892578,0.0,-0.16363659501075745,0.039509136229753494,-1.144728660583496,1777834151594212611
1777834151741202025,275.0936584472656,175.3434600830078,78.51717376708984,243.1045379638672,85.92996978759766,74.1781234741211,24.280000686645508,23.389999389648438,23.389999389648438,22.90999984741211,22.989999771118164,23.709999084472656,23.766193389892578,0.0,-0.16363659501075745,0.039509136229753494,-1.144728660583496,1777834151594212611
1777834151840641250,275.0936584472656,175.3434600830078,78.51717376708984,243.1045379638672,85.92996978759766,74.1781234741211,24.280000686645508,23.389999389648438,23.389999389648438,22.90999984741211,22.989999771118164,23.709999084472656,23.766193389892578,0.0,-0.16363659501075745,0.039509136229753494,-1.144728660583496,1777834151799849188
1777834151941194034,275.0936584472656,175.3434600830078,78.51717376708984,243.1045379638672,85.92996978759766,74.1781234741211,24.360000610351562,23.389999389648438,23.309999465942383,22.90999984741211,23.06999969482422,23.6299991607666,23.766193389892578,0.0,-0.16403236985206604,0.03925522044301033,-1.1462581157684326,1777834151799849188
1777834152041126691,275.0936584472656,175.3434600830078,78.51717376708984,243.1045379638672,85.92996978759766,74.1781234741211,24.360000610351562,23.389999389648438,23.309999465942383,22.90999984741211,23.06999969482422,23.6299991607666,23.766193389892578,0.0,-0.16403236985206604,0.03925522044301033,-1.1462581157684326,1777834152005092105
1777834152141205986,275.0936584472656,175.3434600830078,78.51717376708984,243.1045379638672,85.92996978759766,74.1781234741211,24.360000610351562,23.389999389648438,23.389999389648438,22.829999923706055,23.06999969482422,23.6299991607666,23.766193389892578,0.0,-0.16419608891010284,0.040105581283569336,-1.1443185806274414,1777834152005092105
1777834152241388468,275.0936584472656,175.3434600830078,78.51717376708984,243.1045379638672,85.92996978759766,74.1781234741211,24.280000686645508,23.389999389648438,23.389999389648438,22.829999923706055,23.06999969482422,23.709999084472656,23.766193389892578,0.0,-0.16371090710163116,0.038721561431884766,-1.1472502946853638,1777834152204739042
1777834152341382478,275.0936584472656,175.3434600830078,78.51717376708984,243.1045379638672,85.92996978759766,74.1781234741211,24.280000686645508,23.389999389648438,23.389999389648438,22.829999923706055,23.06999969482422,23.709999084472656,23.766193389892578,0.0,-0.16371090710163116,0.038721561431884766,-1.1472502946853638,1777834152204739042
1777834152441291184,275.0936584472656,175.3434600830078,78.51717376708984,243.1045379638672,85.92996978759766,74.1781234741211,24.280000686645508,23.389999389648438,23.389999389648438,22.829999923706055,23.06999969482422,23.709999084472656,23.766193389892578,0.0,-0.16371090710163116,0.038721561431884766,-1.1472502946853638,1777834152204739042
1777834152541248405,275.0936584472656,175.3434600830078,78.51717376708984,243.1045379638672,85.92996978759766,74.1781234741211,24.280000686645508,23.389999389648438,23.389999389648438,22.829999923706055,23.06999969482422,23.709999084472656,23.766193389892578,0.0,-0.16371090710163116,0.038721561431884766,-1.1472502946853638,1777834152462603917
1777834152641241265,275.0936584472656,175.3434600830078,78.51717376708984,243.1045379638672,85.92996978759766,74.1781234741211,24.280000686645508,23.389999389648438,23.469999313354492,22.829999923706055,22.989999771118164,23.709999084472656,23.766193389892578,0.0,-0.1651807576417923,0.03942728042602539,-1.1451466083526611,1777834152604294503
1777834152741221806,275.0936584472656,175.3434600830078,78.51717376708984,243.1045379638672,85.92996978759766,74.1781234741211,24.280000686645508,23.389999389648438,23.469999313354492,22.829999923706055,22.989999771118164,23.709999084472656,23.766193389892578,0.0,-0.1651807576417923,0.03942728042602539,-1.1451466083526611,1777834152604294503
1777834152841218450,275.0936584472656,175.3434600830078,78.51717376708984,243.1045379638672,85.92996978759766,74.1781234741211,24.360000610351562,23.389999389648438,23.389999389648438,22.90999984741211,23.06999969482422,23.709999084472656,23.766193389892578,0.0,-0.16454656422138214,0.03815889358520508,-1.145064353942871,1777834152788074562
1777834152941145932,275.0936584472656,175.3434600830078,78.51717376708984,243.1045379638672,85.92996978759766,74.1781234741211,24.360000610351562,23.389999389648438,23.389999389648438,22.90999984741211,23.06999969482422,23.709999084472656,23.766193389892578,0.0,-0.16454656422138214,0.03815889358520508,-1.145064353942871,1777834152788074562
1777834153041192667,275.0936584472656,175.3434600830078,78.51717376708984,243.1045379638672,85.92996978759766,74.1781234741211,24.360000610351562,23.389999389648438,23.389999389648438,22.90999984741211,23.06999969482422,23.709999084472656,23.766193389892578,0.0,-0.16454656422138214,0.03815889358520508,-1.145064353942871,1777834152994082406
1777834153141129981,275.0936584472656,175.3434600830078,78.51717376708984,243.1045379638672,85.92996978759766,74.1781234741211,24.280000686645508,23.309999465942383,23.389999389648438,22.90999984741211,22.989999771118164,23.6299991607666,23.766193389892578,0.0,-0.16422708332538605,0.03816644102334976,-1.1469892263412476,1777834152994082406
1777834153241189480,275.0936584472656,175.3434600830078,78.51717376708984,243.1045379638672,85.92996978759766,74.1781234741211,24.360000610351562,23.389999389648438,23.389999389648438,22.829999923706055,22.989999771118164,23.709999084472656,23.766193389892578,0.0,-0.1647031307220459,0.041635431349277496,-1.1444456577301025,1777834153184575604
1777834153341130486,275.0936584472656,175.3434600830078,78.51717376708984,243.1045379638672,85.92996978759766,74.1781234741211,24.360000610351562,23.389999389648438,23.389999389648438,22.829999923706055,22.989999771118164,23.709999084472656,23.766193389892578,0.0,-0.1647031307220459,0.041635431349277496,-1.1444456577301025,1777834153184575604
1777834153440730670,275.0936584472656,175.3434600830078,78.51717376708984,243.1045379638672,85.92996978759766,74.1781234741211,24.280000686645508,23.309999465942383,23.389999389648438,22.829999923706055,23.06999969482422,23.6299991607666,23.766193389892578,0.0,-0.16325592994689941,0.0336909294128418,-1.1445871591567993,1777834153393727900
1777834153540681119,275.0936584472656,175.3434600830078,78.51717376708984,243.1045379638672,85.92996978759766,74.1781234741211,24.280000686645508,23.309999465942383,23.389999389648438,22.829999923706055,23.06999969482422,23.6299991607666,23.766193389892578,0.0,-0.16325592994689941,0.0336909294128418,-1.1445871591567993,1777834153393727900
1777834153640631828,275.0936584472656,175.3434600830078,78.51717376708984,243.1045379638672,85.92996978759766,74.1781234741211,24.280000686645508,23.309999465942383,23.389999389648438,22.829999923706055,23.06999969482422,23.6299991607666,23.766193389892578,0.0,-0.16325592994689941,0.0336909294128418,-1.1445871591567993,1777834153588067957
1777834153740628806,275.0936584472656,175.3434600830078,78.51717376708984,243.1045379638672,85.92996978759766,74.1781234741211,24.280000686645508,23.309999465942383,23.389999389648438,22.829999923706055,23.06999969482422,23.6299991607666,23.766193389892578,0.0,-0.16325592994689941,0.0336909294128418,-1.1445871591567993,1777834153588067957
1777834153840551130,23.766193389892578,0.0,-0.16509094834327698,0.038886070251464844,-1.1452809572219849,24.360000610351562,24.280000686645508,23.309999465942383,23.389999389648438,22.829999923706055,23.06999969482422,23.6299991607666,23.766193389892578,0.0,-0.16325592994689941,0.0336909294128418,-1.1445871591567993,1777834153766411307
1777834153941289845,23.766193389892578,0.0,-0.16509094834327698,0.038886070251464844,-1.1452809572219849,24.360000610351562,24.360000610351562,23.389999389648438,23.389999389648438,22.90999984741211,23.06999969482422,23.709999084472656,23.766887664794922,0.0,-0.16316652297973633,0.0382431335747242,-1.147444248199463,1777834153766411307
1777834154041432013,275.0936584472656,175.3434600830078,78.51717376708984,243.1045379638672,85.92996978759766,74.1781234741211,24.360000610351562,23.389999389648438,23.389999389648438,22.90999984741211,23.06999969482422,23.709999084472656,23.766887664794922,0.0,-0.16316652297973633,0.0382431335747242,-1.147444248199463,1777834154024707132
1777834154141376915,275.0936584472656,175.3434600830078,78.51717376708984,243.1045379638672,85.92996978759766,74.1781234741211,24.280000686645508,23.389999389648438,23.389999389648438,22.829999923706055,23.06999969482422,23.709999084472656,23.766887664794922,0.0,-0.16321897506713867,0.03698030859231949,-1.1463168859481812,1777834154024707132
1777834154241315992,275.0936584472656,175.3434600830078,78.51717376708984,243.1045379638672,85.92996978759766,74.1781234741211,24.280000686645508,23.389999389648438,23.389999389648438,22.829999923706055,23.06999969482422,23.709999084472656,23.766887664794922,0.0,-0.16321897506713867,0.03698030859231949,-1.1463168859481812,1777834154204166806
1777834154341194570,275.0936584472656,175.3434600830078,78.51717376708984,243.1045379638672,85.92996978759766,74.1781234741211,24.360000610351562,23.389999389648438,23.389999389648438,22.829999923706055,23.06999969482422,23.709999084472656,23.766887664794922,0.0,-0.16401687264442444,0.037838615477085114,-1.1459970474243164,1777834154204166806
1777834154441140381,275.0936584472656,175.3434600830078,78.51717376708984,243.1045379638672,85.92996978759766,74.1781234741211,24.280000686645508,23.309999465942383,23.309999465942383,22.90999984741211,23.06999969482422,23.709999084472656,23.766887664794922,0.0,-0.16449451446533203,0.03746549040079117,-1.1436684131622314,1777834154408171623
1777834154541208896,275.0936584472656,175.3434600830078,78.51717376708984,243.1045379638672,85.92996978759766,74.1781234741211,24.280000686645508,23.309999465942383,23.309999465942383,22.90999984741211,23.06999969482422,23.709999084472656,23.766887664794922,0.0,-0.16449451446533203,0.03746549040079117,-1.1436684131622314,1777834154408171623
1777834154641152389,275.0936584472656,175.3434600830078,78.51717376708984,243.1045379638672,85.92996978759766,74.1781234741211,24.280000686645508,23.309999465942383,23.309999465942383,22.90999984741211,23.06999969482422,23.709999084472656,23.766887664794922,0.0,-0.16449451446533203,0.03746549040079117,-1.1436684131622314,1777834154408171623
1777834154741175358,275.0936584472656,175.3434600830078,78.51717376708984,243.1045379638672,85.92996978759766,74.1781234741211,24.280000686645508,23.309999465942383,23.309999465942383,22.90999984741211,23.06999969482422,23.709999084472656,23.766887664794922,0.0,-0.16449451446533203,0.03746549040079117,-1.1436684131622314,1777834154408171623
1777834154841003604,23.766887664794922,0.0,-0.1640021800994873,0.037599802017211914,-1.1465120315551758,24.360000610351562,74.1781234741211,0.0,0.0,0.0,0.0,0.0,275.0936584472656,175.3434600830078,78.51717376708984,243.1045379638672,85.92996978759766,1777834154787316804
1777834154941242726,23.766887664794922,0.0,-0.1640021800994873,0.037599802017211914,-1.1465120315551758,24.360000610351562,74.1781234741211,0.0,0.0,0.0,0.0,0.0,275.0936584472656,175.3434600830078,78.51717376708984,243.1045379638672,85.92996978759766,1777834154787316804
1777834155041097947,23.766887664794922,0.0,-0.16416588425636292,0.03622690588235855,-1.1442819833755493,24.280000686645508,24.360000610351562,23.389999389648438,23.389999389648438,22.90999984741211,23.06999969482422,23.709999084472656,23.766887664794922,0.0,-0.16357699036598206,0.037599802017211914,-1.1452916860580444,1777834154970511912
1777834155140816530,23.766887664794922,0.0,-0.16416588425636292,0.03622690588235855,-1.1442819833755493,24.280000686645508,24.360000610351562,23.389999389648438,23.389999389648438,22.90999984741211,23.06999969482422,23.709999084472656,23.766887664794922,0.0,-0.16357699036598206,0.037599802017211914,-1.1452916860580444,1777834154970511912
1777834155240776720,23.766887664794922,0.0,-0.16416588425636292,0.03622690588235855,-1.1442819833755493,24.280000686645508,24.360000610351562,23.389999389648438,23.389999389648438,22.90999984741211,23.06999969482422,23.709999084472656,23.766887664794922,0.0,-0.16357699036598206,0.037599802017211914,-1.1452916860580444,1777834154970511912
1777834155340720342,275.0936584472656,175.3434600830078,78.51717376708984,243.1045379638672,85.92996978759766,74.1781234741211,24.360000610351562,23.389999389648438,23.389999389648438,22.90999984741211,23.06999969482422,23.709999084472656,23.766887664794922,0.0,-0.16357699036598206,0.037599802017211914,-1.1452916860580444,1777834155249593643
1777834155440667396,275.0936584472656,175.3434600830078,78.51717376708984,243.1045379638672,85.92996978759766,74.1781234741211,24.360000610351562,23.389999389648438,23.389999389648438,22.90999984741211,23.06999969482422,23.709999084472656,23.766887664794922,0.0,-0.16357699036598206,0.037599802017211914,-1.1452916860580444,1777834155249593643
1777834155541203019,23.766887664794922,0.0,-0.16456881165504456,0.03665248304605484,-1.1453778743743896,24.280000686645508,74.1781234741211,0.0,0.0,0.0,0.0,0.0,275.0936584472656,175.3434600830078,78.51717376708984,243.1045379638672,85.92996978759766,1777834155451785722
1777834155641198680,23.766887664794922,0.0,-0.16341248154640198,0.036666788160800934,-1.1453258991241455,24.360000610351562,24.360000610351562,23.389999389648438,23.469999313354492,22.90999984741211,22.989999771118164,23.709999084472656,23.766887664794922,0.0,-0.16445715725421906,0.03598809242248535,-1.1455122232437134,1777834155570752270
1777834155740524012,23.766887664794922,0.0,-0.16341248154640198,0.036666788160800934,-1.1453258991241455,24.360000610351562,24.360000610351562,23.389999389648438,23.469999313354492,22.90999984741211,22.989999771118164,23.709999084472656,23.766887664794922,0.0,-0.16445715725421906,0.03598809242248535,-1.1455122232437134,1777834155570752270
1777834155841208128,275.0936584472656,175.3434600830078,78.51717376708984,243.1045379638672,85.92996978759766,74.1781234741211,24.360000610351562,23.389999389648438,23.469999313354492,22.90999984741211,22.989999771118164,23.709999084472656,23.766887664794922,0.0,-0.16445715725421906,0.03598809242248535,-1.1455122232437134,1777834155793858413
1777834155941415915,275.0936584472656,175.3434600830078,78.51717376708984,243.1045379638672,85.92996978759766,74.1781234741211,24.280000686645508,23.309999465942383,23.309999465942383,22.90999984741211,23.06999969482422,23.709999084472656,23.766887664794922,0.0,-0.16450166702270508,0.03504077345132828,-1.1463252305984497,1777834155793858413
1777834156041363674,275.0936584472656,175.3434600830078,78.51717376708984,243.1045379638672,85.92996978759766,74.1781234741211,24.280000686645508,23.309999465942383,23.309999465942383,22.90999984741211,23.06999969482422,23.709999084472656,23.766887664794922,0.0,-0.16450166702270508,0.03504077345132828,-1.1463252305984497,1777834156025449006
1777834156141124111,275.0936584472656,175.3434600830078,78.51717376708984,243.1045379638672,85.92996978759766,74.1781234741211,24.360000610351562,23.389999389648438,23.389999389648438,22.829999923706055,23.06999969482422,23.8700008392334,23.766887664794922,0.0,-0.16398707032203674,0.037472642958164215,-1.1463029384613037,1777834156025449006
1777834156241178342,275.0936584472656,175.3434600830078,78.51717376708984,243.1045379638672,85.92996978759766,74.1781234741211,24.360000610351562,23.389999389648438,23.389999389648438,22.90999984741211,23.06999969482422,23.709999084472656,23.766887664794922,0.0,-0.16394972801208496,0.040232736617326736,-1.1466387510299683,1777834156197270027
1777834156341233351,275.0936584472656,175.3434600830078,78.51717376708984,243.1045379638672,85.92996978759766,74.1781234741211,24.360000610351562,23.389999389648438,23.389999389648438,22.90999984741211,23.06999969482422,23.709999084472656,23.766887664794922,0.0,-0.16394972801208496,0.040232736617326736,-1.1466387510299683,1777834156197270027
1777834156441124044,275.0936584472656,175.3434600830078,78.51717376708984,243.1045379638672,85.92996978759766,74.1781234741211,24.280000686645508,23.389999389648438,23.389999389648438,22.829999923706055,23.06999969482422,23.709999084472656,23.766887664794922,0.0,-0.16469557583332062,0.041799146682024,-1.1429086923599243,1777834156393445528
1777834156541231890,275.0936584472656,175.3434600830078,78.51717376708984,243.1045379638672,85.92996978759766,74.1781234741211,24.280000686645508,23.389999389648438,23.389999389648438,22.829999923706055,23.06999969482422,23.709999084472656,23.766887664794922,0.0,-0.16469557583332062,0.041799146682024,-1.1429086923599243,1777834156393445528
1777834156641151227,275.0936584472656,175.3434600830078,78.51717376708984,243.1045379638672,85.92996978759766,74.1781234741211,24.280000686645508,23.389999389648438,23.389999389648438,22.829999923706055,23.06999969482422,23.709999084472656,23.766887664794922,0.0,-0.16469557583332062,0.041799146682024,-1.1429086923599243,1777834156613647322
1777834156741208408,275.0936584472656,175.3434600830078,78.51717376708984,243.1045379638672,85.92996978759766,74.1781234741211,24.280000686645508,23.389999389648438,23.389999389648438,22.829999923706055,23.06999969482422,23.709999084472656,23.766887664794922,0.0,-0.16469557583332062,0.041799146682024,-1.1429086923599243,1777834156613647322
1777834156841140898,275.0936584472656,175.3434600830078,78.51717376708984,243.1045379638672,85.92996978759766,74.1781234741211,24.280000686645508,23.389999389648438,23.389999389648438,22.829999923706055,23.06999969482422,23.709999084472656,23.766887664794922,0.0,-0.16469557583332062,0.041799146682024,-1.1429086923599243,1777834156613647322
1777834156940889833,275.0936584472656,175.3434600830078,78.51717376708984,243.1045379638672,85.92996978759766,74.1781234741211,24.280000686645508,23.389999389648438,23.389999389648438,22.829999923706055,23.06999969482422,23.709999084472656,23.766887664794922,0.0,-0.16469557583332062,0.041799146682024,-1.1429086923599243,1777834156613647322
1777834157041501929,23.766887664794922,0.0,-0.16409237682819366,0.037980079650878906,-1.145474910736084,24.280000686645508,74.1781234741211,0.0,0.0,0.0,0.0,0.0,275.0936584472656,175.3434600830078,78.51717376708984,243.1045379638672,85.92996978759766,1777834157021039666
1777834157141242738,23.766887664794922,0.0,-0.16409237682819366,0.037980079650878906,-1.145474910736084,24.280000686645508,74.1781234741211,0.0,0.0,0.0,0.0,0.0,275.0936584472656,175.3434600830078,78.51717376708984,243.1045379638672,85.92996978759766,1777834157021039666
1777834157241115565,23.766887664794922,0.0,-0.16422708332538605,0.0373685359954834,-1.1447886228561401,24.280000686645508,74.1781234741211,0.0,0.0,0.0,0.0,0.0,275.0936584472656,175.3434600830078,78.51717376708984,243.1045379638672,85.92996978759766,1777834157180752897
1777834157341181965,23.766887664794922,0.0,-0.16422708332538605,0.0373685359954834,-1.1447886228561401,24.280000686645508,74.1781234741211,0.0,0.0,0.0,0.0,0.0,275.0936584472656,175.3434600830078,78.51717376708984,243.1045379638672,85.92996978759766,1777834157180752897
1777834157441104030,23.766887664794922,0.0,-0.16469557583332062,0.0368909016251564,-1.1473472118377686,24.360000610351562,74.1781234741211,0.0,0.0,0.0,0.0,0.0,275.0936584472656,175.3434600830078,78.51717376708984,243.1045379638672,85.92996978759766,1777834157380835125
1777834157540536000,23.766887664794922,0.0,-0.16469557583332062,0.0368909016251564,-1.1473472118377686,24.360000610351562,24.360000610351562,23.389999389648438,23.389999389648438,22.90999984741211,23.149999618530273,23.709999084472656,23.766887664794922,0.0,-0.1633453369140625,0.036814212799072266,-1.14510178565979,1777834157380835125
1777834157640474762,23.766887664794922,0.0,-0.16453900933265686,0.036540426313877106,-1.145995020866394,24.360000610351562,24.280000686645508,23.389999389648438,23.389999389648438,22.829999923706055,23.06999969482422,23.6299991607666,23.766887664794922,0.0,-0.16588766872882843,0.03983736038208008,-1.1442140340805054,1777834157580919579
1777834157741187002,23.766887664794922,0.0,-0.16453900933265686,0.036540426313877106,-1.145995020866394,24.360000610351562,24.280000686645508,23.389999389648438,23.389999389648438,22.829999923706055,23.06999969482422,23.6299991607666,23.766887664794922,0.0,-0.16588766872882843,0.03983736038208008,-1.1442140340805054,1777834157580919579
1777834157841224480,275.0936584472656,175.3434600830078,78.51717376708984,243.1045379638672,85.92996978759766,74.1781234741211,24.360000610351562,23.309999465942383,23.389999389648438,22.75,23.06999969482422,23.790000915527344,23.766887664794922,0.0,-0.16346454620361328,0.036029018461704254,-1.1461762189865112,1777834157800906687
1777834157941307911,275.0936584472656,175.3434600830078,78.51717376708984,243.1045379638672,85.92996978759766,74.1781234741211,24.360000610351562,23.309999465942383,23.389999389648438,22.75,23.06999969482422,23.790000915527344,23.766887664794922,0.0,-0.16346454620361328,0.036029018461704254,-1.1461762189865112,1777834157800906687
1777834158041265336,275.0936584472656,175.3434600830078,78.51717376708984,243.1045379638672,85.92996978759766,74.1781234741211,24.360000610351562,23.309999465942383,23.389999389648438,22.75,23.06999969482422,23.790000915527344,23.766887664794922,0.0,-0.16346454620361328,0.036029018461704254,-1.1461762189865112,1777834157800906687
1777834158141209292,275.0936584472656,175.3434600830078,78.51717376708984,243.1045379638672,85.92996978759766,74.1781234741211,24.280000686645508,23.389999389648438,23.469999313354492,22.829999923706055,23.06999969482422,23.709999084472656,23.766887664794922,0.0,-0.16327102482318878,0.03753940016031265,-1.1472574472427368,1777834158065122413
1777834158241200816,275.0936584472656,175.3434600830078,78.51717376708984,243.1045379638672,85.92996978759766,74.1781234741211,24.280000686645508,23.389999389648438,23.469999313354492,22.829999923706055,23.06999969482422,23.709999084472656,23.766887664794922,0.0,-0.16327102482318878,0.03753940016031265,-1.1472574472427368,1777834158065122413
1777834158341145625,275.0936584472656,175.3434600830078,78.51717376708984,243.1045379638672,85.92996978759766,74.1781234741211,24.280000686645508,23.389999389648438,23.389999389648438,22.90999984741211,23.06999969482422,23.790000915527344,23.766887664794922,0.0,-0.16457834839820862,0.038077034056186676,-1.1443932056427002,1777834158245829094
1777834158441201080,275.0936584472656,175.3434600830078,78.51717376708984,243.1045379638672,85.92996978759766,74.1781234741211,24.280000686645508,23.389999389648438,23.389999389648438,22.90999984741211,23.06999969482422,23.790000915527344,23.766887664794922,0.0,-0.16457834839820862,0.038077034056186676,-1.1443932056427002,1777834158390814646
1777834158541373377,275.0936584472656,175.3434600830078,78.51717376708984,243.1045379638672,85.92996978759766,74.1781234741211,24.360000610351562,23.389999389648438,23.469999313354492,22.829999923706055,22.989999771118164,23.709999084472656,23.766887664794922,0.0,-0.1633230745792389,0.04021048545837402,-1.1469895839691162,1777834158390814646
1777834158641183553,275.0936584472656,175.3434600830078,78.51717376708984,243.1045379638672,85.92996978759766,74.1781234741211,24.360000610351562,23.389999389648438,23.469999313354492,22.829999923706055,22.989999771118164,23.709999084472656,23.766887664794922,0.0,-0.1633230745792389,0.04021048545837402,-1.1469895839691162,1777834158605615740
1777834158741174576,275.0936584472656,175.3434600830078,78.51717376708984,243.1045379638672,85.92996978759766,74.1781234741211,24.360000610351562,23.389999389648438,23.469999313354492,22.829999923706055,22.989999771118164,23.709999084472656,23.766887664794922,0.0,-0.1633230745792389,0.04021048545837402,-1.1469895839691162,1777834158605615740
1777834158841136382,23.766887664794922,0.0,-0.1637335568666458,0.0381215400993824,-1.1455789804458618,24.280000686645508,24.360000610351562,23.389999389648438,23.469999313354492,22.90999984741211,23.06999969482422,23.709999084472656,23.76801300048828,0.0,-0.1631220132112503,0.039897359907627106,-1.1446690559387207,1777834158781417511
1777834158941140510,23.766887664794922,0.0,-0.1637335568666458,0.0381215400993824,-1.1455789804458618,24.280000686645508,24.360000610351562,23.389999389648438,23.469999313354492,22.90999984741211,23.06999969482422,23.709999084472656,23.76801300048828,0.0,-0.1631220132112503,0.039897359907627106,-1.1446690559387207,1777834158781417511
1777834159040630229,275.0936584472656,175.3434600830078,78.51717376708984,243.1045379638672,85.92996978759766,74.1781234741211,24.360000610351562,23.389999389648438,23.469999313354492,22.90999984741211,23.06999969482422,23.709999084472656,23.76801300048828,0.0,-0.1631220132112503,0.039897359907627106,-1.1446690559387207,1777834159024438938
1777834159141125841,275.0936584472656,175.3434600830078,78.51717376708984,243.1045379638672,85.92996978759766,74.1781234741211,24.360000610351562,23.389999389648438,23.389999389648438,22.90999984741211,22.989999771118164,23.709999084472656,23.76801300048828,0.0,-0.1646212637424469,0.03796497732400894,-1.1463773250579834,1777834159024438938
1777834159241128007,275.0936584472656,175.3434600830078,78.51717376708984,243.1045379638672,85.92996978759766,74.1781234741211,24.360000610351562,23.389999389648438,23.389999389648438,22.90999984741211,23.149999618530273,23.6299991607666,23.76801300048828,0.0,-0.16358454525470734,0.038173992186784744,-1.147026538848877,1777834159202612978
1777834159341130691,275.0936584472656,175.3434600830078,78.51717376708984,243.1045379638672,85.92996978759766,74.1781234741211,24.360000610351562,23.389999389648438,23.389999389648438,22.90999984741211,23.149999618530273,23.6299991607666,23.76801300048828,0.0,-0.16358454525470734,0.038173992186784744,-1.147026538848877,1777834159202612978
1777834159441132430,275.0936584472656,175.3434600830078,78.51717376708984,243.1045379638672,85.92996978759766,74.1781234741211,24.360000610351562,23.389999389648438,23.389999389648438,22.90999984741211,23.149999618530273,23.6299991607666,23.76801300048828,0.0,-0.16358454525470734,0.038173992186784744,-1.147026538848877,1777834159425201176
1777834159540816484,275.0936584472656,175.3434600830078,78.51717376708984,243.1045379638672,85.92996978759766,74.1781234741211,24.280000686645508,23.309999465942383,23.469999313354492,22.90999984741211,23.06999969482422,23.790000915527344,23.76801300048828,0.0,-0.16629138588905334,0.03789861872792244,-1.145064353942871,1777834159425201176
1777834159641128076,275.0936584472656,175.3434600830078,78.51717376708984,243.1045379638672,85.92996978759766,74.1781234741211,24.280000686645508,23.309999465942383,23.469999313354492,22.90999984741211,23.06999969482422,23.790000915527344,23.76801300048828,0.0,-0.16629138588905334,0.03789861872792244,-1.145064353942871,1777834159425201176
1777834159741137723,275.0936584472656,175.3434600830078,78.51717376708984,243.1045379638672,85.92996978759766,74.1781234741211,24.280000686645508,23.309999465942383,23.469999313354492,22.90999984741211,23.06999969482422,23.790000915527344,23.76801300048828,0.0,-0.16629138588905334,0.03789861872792244,-1.145064353942871,1777834159425201176
1777834159841140722,275.0936584472656,175.3434600830078,78.51717376708984,243.1045379638672,85.92996978759766,74.1781234741211,24.280000686645508,23.309999465942383,23.469999313354492,22.90999984741211,23.06999969482422,23.790000915527344,23.76801300048828,0.0,-0.16629138588905334,0.03789861872792244,-1.145064353942871,1777834159425201176
1777834159941137184,275.0936584472656,175.3434600830078,78.51717376708984,243.1045379638672,85.92996978759766,74.1781234741211,24.280000686645508,23.309999465942383,23.469999313354492,22.90999984741211,23.06999969482422,23.790000915527344,23.76801300048828,0.0,-0.16629138588905334,0.03789861872792244,-1.145064353942871,1777834159425201176
1777834160040475995,275.0936584472656,175.3434600830078,78.51717376708984,243.1045379638672,85.92996978759766,74.1781234741211,24.280000686645508,23.309999465942383,23.469999313354492,22.90999984741211,23.06999969482422,23.790000915527344,23.76801300048828,0.0,-0.16629138588905334,0.03789861872792244,-1.145064353942871,1777834159425201176
1777834160141141126,275.0936584472656,175.3434600830078,78.51717376708984,243.1045379638672,85.92996978759766,74.1781234741211,24.280000686645508,23.469999313354492,23.469999313354492,22.829999923706055,23.06999969482422,23.790000915527344,23.76801300048828,0.0,-0.16295750439167023,0.03434697538614273,-1.145012378692627,1777834160056615157
1777834160241138439,275.0936584472656,175.3434600830078,78.51717376708984,243.1045379638672,85.92996978759766,74.1781234741211,24.280000686645508,23.389999389648438,23.389999389648438,22.90999984741211,22.989999771118164,23.709999084472656,23.76801300048828,0.0,-0.1640395224094391,0.04012862592935562,-1.1473921537399292,1777834160196765374
1777834160341358939,275.0936584472656,175.3434600830078,78.51717376708984,243.1045379638672,85.92996978759766,74.1781234741211,24.280000686645508,23.389999389648438,23.389999389648438,22.90999984741211,22.989999771118164,23.709999084472656,23.76801300048828,0.0,-0.1640395224094391,0.04012862592935562,-1.1473921537399292,1777834160196765374
1777834160441149345,275.0936584472656,175.3434600830078,78.51717376708984,243.1045379638672,85.92996978759766,74.1781234741211,24.280000686645508,23.389999389648438,23.469999313354492,22.829999923706055,23.06999969482422,23.709999084472656,23.76801300048828,0.0,-0.16389766335487366,0.038435060530900955,-1.146757960319519,1777834160396834020
1777834160541149436,275.0936584472656,175.3434600830078,78.51717376708984,243.1045379638672,85.92996978759766,74.1781234741211,24.280000686645508,23.389999389648438,23.469999313354492,22.829999923706055,23.06999969482422,23.709999084472656,23.76801300048828,0.0,-0.16389766335487366,0.038435060530900955,-1.146757960319519,1777834160396834020
1777834160641140916,23.76801300048828,0.0,-0.16451120376586914,0.03936012461781502,-1.145646572113037,24.280000686645508,24.360000610351562,23.389999389648438,23.469999313354492,22.829999923706055,23.06999969482422,23.6299991607666,23.76801300048828,0.0,-0.16365130245685577,0.03755450248718262,-1.1439902782440186,1777834160596903815
1777834160741133823,23.76801300048828,0.0,-0.16451120376586914,0.03936012461781502,-1.145646572113037,24.280000686645508,24.360000610351562,23.389999389648438,23.469999313354492,22.829999923706055,23.06999969482422,23.6299991607666,23.76801300048828,0.0,-0.16365130245685577,0.03755450248718262,-1.1439902782440186,1777834160596903815
1777834160841146173,23.76801300048828,0.0,-0.16451120376586914,0.03936012461781502,-1.145646572113037,24.280000686645508,24.360000610351562,23.389999389648438,23.469999313354492,22.829999923706055,23.06999969482422,23.6299991607666,23.76801300048828,0.0,-0.16365130245685577,0.03755450248718262,-1.1439902782440186,1777834160596903815
1777834160941146709,23.76801300048828,0.0,-0.1631816178560257,0.038912296295166016,-1.1455459594726562,24.360000610351562,74.1781234741211,0.0,0.0,0.0,0.0,0.0,275.0936584472656,175.3434600830078,78.51717376708984,243.1045379638672,85.92996978759766,1777834160857524651
1777834161041155060,23.76801300048828,0.0,-0.16440510749816895,0.035913385450839996,-1.1464444398880005,24.360000610351562,74.1781234741211,0.0,0.0,0.0,0.0,0.0,275.0936584472656,175.3434600830078,78.51717376708984,243.1045379638672,85.92996978759766,1777834160997029959
1777834161141148281,23.76801300048828,0.0,-0.16440510749816895,0.035913385450839996,-1.1464444398880005,24.360000610351562,24.280000686645508,23.469999313354492,23.469999313354492,22.90999984741211,23.06999969482422,23.709999084472656,23.76801300048828,0.0,-0.16471782326698303,0.04297812655568123,-1.1471608877182007,1777834160997029959
1777834161241173613,23.76801300048828,0.0,-0.16440510749816895,0.035913385450839996,-1.1464444398880005,24.360000610351562,24.280000686645508,23.469999313354492,23.469999313354492,22.90999984741211,23.06999969482422,23.709999084472656,23.76801300048828,0.0,-0.16471782326698303,0.04297812655568123,-1.1471608877182007,1777834160997029959
1777834161341173575,275.0936584472656,175.3434600830078,78.51717376708984,243.1045379638672,85.92996978759766,74.1781234741211,24.280000686645508,23.469999313354492,23.469999313354492,22.90999984741211,23.06999969482422,23.709999084472656,23.76801300048828,0.0,-0.16471782326698303,0.04297812655568123,-1.1471608877182007,1777834161246091962
1777834161441162926,23.76801300048828,0.0,-0.16364336013793945,0.037502843886613846,-1.1438707113265991,24.360000610351562,24.360000610351562,23.389999389648438,23.469999313354492,22.829999923706055,23.06999969482422,23.709999084472656,23.76801300048828,0.0,-0.1638452112674713,0.038248300552368164,-1.1454076766967773,1777834161397808419
1777834161540463311,23.76801300048828,0.0,-0.16364336013793945,0.037502843886613846,-1.1438707113265991,24.360000610351562,24.360000610351562,23.389999389648438,23.469999313354492,22.829999923706055,23.06999969482422,23.709999084472656,23.76801300048828,0.0,-0.1638452112674713,0.038248300552368164,-1.1454076766967773,1777834161397808419
1777834161641206831,23.76801300048828,0.0,-0.16364336013793945,0.037502843886613846,-1.1438707113265991,24.360000610351562,24.360000610351562,23.389999389648438,23.469999313354492,22.829999923706055,23.06999969482422,23.709999084472656,23.76801300048828,0.0,-0.1638452112674713,0.038248300552368164,-1.1454076766967773,1777834161397808419
1777834161741155404,275.0936584472656,175.3434600830078,78.51717376708984,243.1045379638672,85.92996978759766,74.1781234741211,24.360000610351562,23.389999389648438,23.389999389648438,22.90999984741211,23.06999969482422,23.709999084472656,23.76801300048828,0.0,-0.16368110477924347,0.039240915328264236,-1.1452809572219849,1777834161692882197
1777834161841158828,275.0936584472656,175.3434600830078,78.51717376708984,243.1045379638672,85.92996978759766,74.1781234741211,24.360000610351562,23.389999389648438,23.389999389648438,22.90999984741211,23.06999969482422,23.709999084472656,23.76801300048828,0.0,-0.16368110477924347,0.039240915328264236,-1.1452809572219849,1777834161827622527
1777834161941220420,275.0936584472656,175.3434600830078,78.51717376708984,243.1045379638672,85.92996978759766,74.1781234741211,24.280000686645508,23.389999389648438,23.469999313354492,22.90999984741211,22.989999771118164,23.790000915527344,23.76801300048828,0.0,-0.16305246949195862,0.03919561579823494,-1.146653413772583,1777834161827622527
1777834162041165826,275.0936584472656,175.3434600830078,78.51717376708984,243.1045379638672,85.92996978759766,74.1781234741211,24.280000686645508,23.389999389648438,23.469999313354492,22.90999984741211,22.989999771118164,23.790000915527344,23.76801300048828,0.0,-0.16305246949195862,0.03919561579823494,-1.146653413772583,1777834161827622527
1777834162141167899,275.0936584472656,175.3434600830078,78.51717376708984,243.1045379638672,85.92996978759766,74.1781234741211,24.280000686645508,23.389999389648438,23.469999313354492,22.90999984741211,22.989999771118164,23.790000915527344,23.76801300048828,0.0,-0.16305246949195862,0.03919561579823494,-1.146653413772583,1777834161827622527
1777834162241170861,275.0936584472656,175.3434600830078,78.51717376708984,243.1045379638672,85.92996978759766,74.1781234741211,74.1781234741211,0.0,0.0,0.0,0.0,0.0,275.0936584472656,175.3434600830078,78.51717376708984,243.1045379638672,85.92996978759766,1777834161827622527
1777834162341186749,275.0936584472656,175.3434600830078,78.51717376708984,243.1045379638672,85.92996978759766,74.1781234741211,74.1781234741211,0.0,0.0,0.0,0.0,0.0,275.0936584472656,175.3434600830078,78.51717376708984,243.1045379638672,85.92996978759766,1777834161827622527
1777834162441335637,275.0936584472656,175.3434600830078,78.51717376708984,243.1045379638672,85.92996978759766,74.1781234741211,24.360000610351562,23.389999389648438,23.469999313354492,22.90999984741211,23.06999969482422,23.709999084472656,23.76801300048828,0.0,-0.16455411911010742,0.03775596618652344,-1.1443257331848145,1777834162401505845
1777834162541168469,275.0936584472656,175.3434600830078,78.51717376708984,243.1045379638672,85.92996978759766,74.1781234741211,24.360000610351562,23.389999389648438,23.469999313354492,22.90999984741211,23.06999969482422,23.709999084472656,23.76801300048828,0.0,-0.16455411911010742,0.03775596618652344,-1.1443257331848145,1777834162401505845
1777834162641180171,23.76801300048828,0.0,-0.16360679268836975,0.03671208769083023,-1.1458253860473633,24.280000686645508,24.360000610351562,23.389999389648438,23.469999313354492,22.829999923706055,22.989999771118164,23.709999084472656,23.76801300048828,0.0,-0.16427040100097656,0.03953138738870621,-1.1428788900375366,1777834162601565639
1777834162741169503,23.76801300048828,0.0,-0.16360679268836975,0.03671208769083023,-1.1458253860473633,24.280000686645508,24.360000610351562,23.389999389648438,23.469999313354492,22.829999923706055,22.989999771118164,23.709999084472656,23.76801300048828,0.0,-0.16427040100097656,0.03953138738870621,-1.1428788900375366,1777834162601565639
1777834162841175780,275.0936584472656,175.3434600830078,78.51717376708984,243.1045379638672,85.92996978759766,74.1781234741211,24.360000610351562,23.389999389648438,23.469999313354492,22.829999923706055,22.989999771118164,23.709999084472656,23.76801300048828,0.0,-0.16427040100097656,0.03953138738870621,-1.1428788900375366,1777834162831601287
1777834162941176927,275.0936584472656,175.3434600830078,78.51717376708984,243.1045379638672,85.92996978759766,74.1781234741211,24.360000610351562,23.469999313354492,23.389999389648438,22.90999984741211,23.06999969482422,23.790000915527344,23.76801300048828,0.0,-0.1643824577331543,0.03825624659657478,-1.1460117101669312,1777834162831601287
1777834163041177018,275.0936584472656,175.3434600830078,78.51717376708984,243.1045379638672,85.92996978759766,74.1781234741211,24.360000610351562,23.469999313354492,23.389999389648438,22.90999984741211,23.06999969482422,23.790000915527344,23.76801300048828,0.0,-0.1643824577331543,0.03825624659657478,-1.1460117101669312,1777834163026202971
1777834163141177610,275.0936584472656,175.3434600830078,78.51717376708984,243.1045379638672,85.92996978759766,74.1781234741211,24.360000610351562,23.389999389648438,23.469999313354492,22.829999923706055,23.06999969482422,23.790000915527344,23.76801300048828,0.0,-0.1639048159122467,0.03658493235707283,-1.1455833911895752,1777834163026202971
1777834163241182331,275.0936584472656,175.3434600830078,78.51717376708984,243.1045379638672,85.92996978759766,74.1781234741211,24.360000610351562,23.389999389648438,23.469999313354492,22.829999923706055,23.06999969482422,23.790000915527344,23.76801300048828,0.0,-0.1639048159122467,0.03658493235707283,-1.1455833911895752,1777834163225867227
1777834163341185941,275.0936584472656,175.3434600830078,78.51717376708984,243.1045379638672,85.92996978759766,74.1781234741211,24.280000686645508,23.309999465942383,23.469999313354492,22.90999984741211,23.06999969482422,23.790000915527344,23.76801300048828,0.0,-0.16463835537433624,0.03991961479187012,-1.1456314325332642,1777834163225867227
1777834163441184143,275.0936584472656,175.3434600830078,78.51717376708984,243.1045379638672,85.92996978759766,74.1781234741211,24.280000686645508,23.309999465942383,23.469999313354492,22.90999984741211,23.06999969482422,23.790000915527344,23.76801300048828,0.0,-0.16463835537433624,0.03991961479187012,-1.1456314325332642,1777834163428749197
1777834163541239642,275.0936584472656,175.3434600830078,78.51717376708984,243.1045379638672,85.92996978759766,74.1781234741211,24.360000610351562,23.389999389648438,23.469999313354492,22.829999923706055,23.06999969482422,23.6299991607666,23.76801300048828,0.0,-0.16333062946796417,0.040628910064697266,-1.146668553352356,1777834163428749197
1777834163641186400,275.0936584472656,175.3434600830078,78.51717376708984,243.1045379638672,85.92996978759766,74.1781234741211,24.360000610351562,23.389999389648438,23.469999313354492,22.829999923706055,23.06999969482422,23.6299991607666,23.76801300048828,0.0,-0.16333062946796417,0.040628910064697266,-1.146668553352356,1777834163621069467
1777834163741239566,275.0936584472656,175.3434600830078,78.51717376708984,243.1045379638672,85.92996978759766,74.1781234741211,24.360000610351562,23.389999389648438,23.389999389648438,22.90999984741211,23.06999969482422,23.709999084472656,23.76801300048828,0.0,-0.16580739617347717,0.03962119296193123,-1.1450345516204834,1777834163621069467
1777834163841188528,275.0936584472656,175.3434600830078,78.51717376708984,243.1045379638672,85.92996978759766,74.1781234741211,24.360000610351562,23.389999389648438,23.389999389648438,22.90999984741211,23.06999969482422,23.709999084472656,23.76801300048828,0.0,-0.16580739617347717,0.03962119296193123,-1.1450345516204834,1777834163621069467
1777834163941191545,275.0936584472656,175.3434600830078,78.51717376708984,243.1045379638672,85.92996978759766,74.1781234741211,74.1781234741211,0.0,0.0,0.0,0.0,0.0,275.0936584472656,175.3434600830078,78.51717376708984,243.1045379638672,85.92996978759766,1777834163621069467
1777834164041190081,23.767824172973633,0.0,-0.16268928349018097,0.03586093336343765,-1.1460192203521729,24.360000610351562,24.360000610351562,23.389999389648438,23.469999313354492,22.90999984741211,23.06999969482422,23.790000915527344,23.767824172973633,0.0,-0.164830282330513,0.037733711302280426,-1.1457955837249756,1777834164002137532
1777834164141324988,23.767824172973633,0.0,-0.16268928349018097,0.03586093336343765,-1.1460192203521729,24.360000610351562,24.360000610351562,23.389999389648438,23.469999313354492,22.90999984741211,23.06999969482422,23.790000915527344,23.767824172973633,0.0,-0.164830282330513,0.037733711302280426,-1.1457955837249756,1777834164002137532
1777834164241187430,23.767824172973633,0.0,-0.16268928349018097,0.03586093336343765,-1.1460192203521729,24.360000610351562,24.360000610351562,23.389999389648438,23.469999313354492,22.90999984741211,23.06999969482422,23.790000915527344,23.767824172973633,0.0,-0.164830282330513,0.037733711302280426,-1.1457955837249756,1777834164002137532
1777834164341194022,275.0936584472656,175.3434600830078,78.51717376708984,243.1045379638672,85.92996978759766,74.1781234741211,24.360000610351562,23.389999389648438,23.469999313354492,22.90999984741211,22.989999771118164,23.790000915527344,23.767824172973633,0.0,-0.16393502056598663,0.03751714900135994,-1.1458925008773804,1777834164247541487
1777834164441188484,275.0936584472656,175.3434600830078,78.51717376708984,243.1045379638672,85.92996978759766,74.1781234741211,24.360000610351562,23.389999389648438,23.469999313354492,22.90999984741211,22.989999771118164,23.790000915527344,23.767824172973633,0.0,-0.16393502056598663,0.03751714900135994,-1.1458925008773804,1777834164247541487
1777834164541195908,275.0936584472656,175.3434600830078,78.51717376708984,243.1045379638672,85.92996978759766,74.1781234741211,24.280000686645508,23.389999389648438,23.469999313354492,22.90999984741211,23.149999618530273,23.790000915527344,23.767824172973633,0.0,-0.16457636654376984,0.03671208769083023,-1.146757960319519,1777834164468317402
1777834164641207796,275.0936584472656,175.3434600830078,78.51717376708984,243.1045379638672,85.92996978759766,74.1781234741211,24.280000686645508,23.389999389648438,23.469999313354492,22.90999984741211,23.149999618530273,23.790000915527344,23.767824172973633,0.0,-0.16457636654376984,0.03671208769083023,-1.146757960319519,1777834164468317402
1777834164741204221,275.0936584472656,175.3434600830078,78.51717376708984,243.1045379638672,85.92996978759766,74.1781234741211,24.360000610351562,23.469999313354492,23.469999313354492,22.829999923706055,23.06999969482422,23.709999084472656,23.767824172973633,0.0,-0.16486763954162598,0.03631671145558357,-1.1471831798553467,1777834164644930882
1777834164841212424,275.0936584472656,175.3434600830078,78.51717376708984,243.1045379638672,85.92996978759766,74.1781234741211,24.360000610351562,23.469999313354492,23.469999313354492,22.829999923706055,23.06999969482422,23.709999084472656,23.767824172973633,0.0,-0.16486763954162598,0.03631671145558357,-1.1471831798553467,1777834164814021709
1777834164941393571,275.0936584472656,175.3434600830078,78.51717376708984,243.1045379638672,85.92996978759766,74.1781234741211,24.280000686645508,23.469999313354492,23.469999313354492,22.90999984741211,23.06999969482422,23.709999084472656,23.767824172973633,0.0,-0.16195058822631836,0.0357719250023365,-1.146675705909729,1777834164814021709
1777834165041210255,275.0936584472656,175.3434600830078,78.51717376708984,243.1045379638672,85.92996978759766,74.1781234741211,24.280000686645508,23.469999313354492,23.469999313354492,22.90999984741211,23.06999969482422,23.709999084472656,23.767824172973633,0.0,-0.16195058822631836,0.0357719250023365,-1.146675705909729,1777834164814021709
1777834165141258383,275.0936584472656,175.3434600830078,78.51717376708984,243.1045379638672,85.92996978759766,74.1781234741211,24.280000686645508,23.469999313354492,23.469999313354492,22.90999984741211,23.06999969482422,23.709999084472656,23.767824172973633,0.0,-0.16195058822631836,0.0357719250023365,-1.146675705909729,1777834165043180631
1777834165241208049,23.767824172973633,0.0,-0.16393502056598663,0.039307672530412674,-1.1472351551055908,24.360000610351562,24.360000610351562,23.389999389648438,23.549999237060547,22.90999984741211,23.06999969482422,23.790000915527344,23.767824172973633,0.0,-0.16356110572814941,0.03806908801198006,-1.1439383029937744,1777834165202546446
1777834165341209770,23.767824172973633,0.0,-0.16393502056598663,0.039307672530412674,-1.1472351551055908,24.360000610351562,24.360000610351562,23.389999389648438,23.549999237060547,22.90999984741211,23.06999969482422,23.790000915527344,23.767824172973633,0.0,-0.16356110572814941,0.03806908801198006,-1.1439383029937744,1777834165202546446
1777834165441209472,275.0936584472656,175.3434600830078,78.51717376708984,243.1045379638672,85.92996978759766,74.1781234741211,24.360000610351562,23.389999389648438,23.549999237060547,22.90999984741211,23.06999969482422,23.790000915527344,23.767824172973633,0.0,-0.16356110572814941,0.03806908801198006,-1.1439383029937744,1777834165421675781
1777834165541020415,275.0936584472656,175.3434600830078,78.51717376708984,243.1045379638672,85.92996978759766,74.1781234741211,24.360000610351562,23.469999313354492,23.389999389648438,22.90999984741211,23.06999969482422,23.790000915527344,23.767824172973633,0.0,-0.164830282330513,0.04029989242553711,-1.1460716724395752,1777834165421675781
1777834165641212285,275.0936584472656,175.3434600830078,78.51717376708984,243.1045379638672,85.92996978759766,74.1781234741211,24.360000610351562,23.469999313354492,23.389999389648438,22.90999984741211,23.06999969482422,23.790000915527344,23.767824172973633,0.0,-0.164830282330513,0.04029989242553711,-1.1460716724395752,1777834165624254639
1777834165741094746,275.0936584472656,175.3434600830078,78.51717376708984,243.1045379638672,85.92996978759766,74.1781234741211,24.440000534057617,23.389999389648438,23.389999389648438,22.829999923706055,23.06999969482422,23.709999084472656,23.767824172973633,0.0,-0.16248741745948792,0.03706216812133789,-1.1464369297027588,1777834165624254639
1777834165841110060,275.0936584472656,175.3434600830078,78.51717376708984,243.1045379638672,85.92996978759766,74.1781234741211,24.440000534057617,23.389999389648438,23.389999389648438,22.829999923706055,23.06999969482422,23.709999084472656,23.767824172973633,0.0,-0.16248741745948792,0.03706216812133789,-1.1464369297027588,1777834165624254639
1777834165941094651,275.0936584472656,175.3434600830078,78.51717376708984,243.1045379638672,85.92996978759766,74.1781234741211,24.360000610351562,23.389999389648438,23.309999465942383,22.829999923706055,23.149999618530273,23.709999084472656,23.767824172973633,0.0,-0.16372600197792053,0.0402776375412941,-1.1456239223480225,1777834165861537735
1777834166041087613,275.0936584472656,175.3434600830078,78.51717376708984,243.1045379638672,85.92996978759766,74.1781234741211,24.360000610351562,23.389999389648438,23.309999465942383,22.829999923706055,23.149999618530273,23.709999084472656,23.767824172973633,0.0,-0.16372600197792053,0.0402776375412941,-1.1456239223480225,1777834165861537735
1777834166140587888,275.0936584472656,175.3434600830078,78.51717376708984,243.1045379638672,85.92996978759766,74.1781234741211,24.360000610351562,23.389999389648438,23.309999465942383,22.829999923706055,23.149999618530273,23.709999084472656,23.767824172973633,0.0,-0.16372600197792053,0.0402776375412941,-1.1456239223480225,1777834165861537735
1777834166241364519,23.767824172973633,0.0,-0.16394972801208496,0.03916621208190918,-1.1451537609100342,24.280000686645508,24.360000610351562,23.389999389648438,23.389999389648438,22.90999984741211,23.06999969482422,23.790000915527344,23.767824172973633,0.0,-0.16363659501075745,0.039278268814086914,-1.1460943222045898,1777834166202915528
1777834166341145739,23.767824172973633,0.0,-0.16394972801208496,0.03916621208190918,-1.1451537609100342,24.280000686645508,24.360000610351562,23.389999389648438,23.389999389648438,22.90999984741211,23.06999969482422,23.790000915527344,23.767824172973633,0.0,-0.16363659501075745,0.039278268814086914,-1.1460943222045898,1777834166202915528
1777834166441091275,275.0936584472656,175.3434600830078,78.51717376708984,243.1045379638672,85.92996978759766,74.1781234741211,24.360000610351562,23.389999389648438,23.389999389648438,22.90999984741211,23.06999969482422,23.790000915527344,23.767824172973633,0.0,-0.16363659501075745,0.039278268814086914,-1.1460943222045898,1777834166440809959
1777834166541110181,275.0936584472656,175.3434600830078,78.51717376708984,243.1045379638672,85.92996978759766,74.1781234741211,24.360000610351562,23.469999313354492,23.469999313354492,22.90999984741211,23.149999618530273,23.790000915527344,23.767824172973633,0.0,-0.16421833634376526,0.036435920745134354,-1.1456016302108765,1777834166440809959
1777834166641098662,275.0936584472656,175.3434600830078,78.51717376708984,243.1045379638672,85.92996978759766,74.1781234741211,24.360000610351562,23.469999313354492,23.469999313354492,22.90999984741211,23.149999618530273,23.790000915527344,23.767824172973633,0.0,-0.16421833634376526,0.036435920745134354,-1.1456016302108765,1777834166627346063
1777834166741154013,275.0936584472656,175.3434600830078,78.51717376708984,243.1045379638672,85.92996978759766,74.1781234741211,24.280000686645508,23.309999465942383,23.469999313354492,22.90999984741211,23.06999969482422,23.790000915527344,23.767824172973633,0.0,-0.16391237080097198,0.039517082273960114,-1.1471978425979614,1777834166627346063
1777834166841102993,275.0936584472656,175.3434600830078,78.51717376708984,243.1045379638672,85.92996978759766,74.1781234741211,24.280000686645508,23.309999465942383,23.469999313354492,22.90999984741211,23.06999969482422,23.790000915527344,23.767824172973633,0.0,-0.16391237080097198,0.039517082273960114,-1.1471978425979614,1777834166627346063
1777834166941104658,275.0936584472656,175.3434600830078,78.51717376708984,243.1045379638672,85.92996978759766,74.1781234741211,24.280000686645508,23.389999389648438,23.469999313354492,22.829999923706055,23.149999618530273,23.790000915527344,23.767824172973633,0.0,-0.16498684883117676,0.03850976377725601,-1.1449304819107056,1777834166846287157
1777834167040461581,275.0936584472656,175.3434600830078,78.51717376708984,243.1045379638672,85.92996978759766,74.1781234741211,24.280000686645508,23.389999389648438,23.469999313354492,22.829999923706055,23.149999618530273,23.790000915527344,23.767824172973633,0.0,-0.16498684883117676,0.03850976377725601,-1.1449304819107056,1777834167034255469
1777834167141231379,275.0936584472656,175.3434600830078,78.51717376708984,243.1045379638672,85.92996978759766,74.1781234741211,24.280000686645508,23.389999389648438,23.549999237060547,22.90999984741211,23.06999969482422,23.790000915527344,23.767824172973633,0.0,-0.16274888813495636,0.036242008209228516,-1.145810604095459,1777834167034255469
1777834167241109784,275.0936584472656,175.3434600830078,78.51717376708984,243.1045379638672,85.92996978759766,74.1781234741211,24.280000686645508,23.389999389648438,23.549999237060547,22.90999984741211,23.06999969482422,23.790000915527344,23.767824172973633,0.0,-0.16274888813495636,0.036242008209228516,-1.145810604095459,1777834167034255469
1777834167341108950,275.0936584472656,175.3434600830078,78.51717376708984,243.1045379638672,85.92996978759766,74.1781234741211,24.360000610351562,23.389999389648438,23.469999313354492,22.829999923706055,23.06999969482422,23.709999084472656,23.767824172973633,0.0,-0.16468802094459534,0.037413038313388824,-1.144990086555481,1777834167263930837
1777834167441113597,275.0936584472656,175.3434600830078,78.51717376708984,243.1045379638672,85.92996978759766,74.1781234741211,24.360000610351562,23.389999389648438,23.469999313354492,22.829999923706055,23.06999969482422,23.709999084472656,23.767824172973633,0.0,-0.16468802094459534,0.037413038313388824,-1.144990086555481,1777834167434866929
1777834167541115762,275.0936584472656,175.3434600830078,78.51717376708984,243.1045379638672,85.92996978759766,74.1781234741211,24.360000610351562,23.389999389648438,23.389999389648438,22.829999923706055,23.06999969482422,23.790000915527344,23.767824172973633,0.0,-0.16398707032203674,0.03616730123758316,-1.1461241245269775,1777834167434866929
1777834167641139150,275.0936584472656,175.3434600830078,78.51717376708984,243.1045379638672,85.92996978759766,74.1781234741211,24.360000610351562,23.389999389648438,23.389999389648438,22.829999923706055,23.06999969482422,23.790000915527344,23.767824172973633,0.0,-0.16398707032203674,0.03616730123758316,-1.1461241245269775,1777834167635482855
1777834167741108260,275.0936584472656,175.3434600830078,78.51717376708984,243.1045379638672,85.92996978759766,74.1781234741211,24.360000610351562,23.389999389648438,23.389999389648438,22.829999923706055,23.06999969482422,23.790000915527344,23.767824172973633,0.0,-0.16398707032203674,0.03616730123758316,-1.1461241245269775,1777834167635482855
1777834167841122166,23.767824172973633,0.0,-0.16371846199035645,0.03819664195179939,-1.145646572113037,24.360000610351562,24.280000686645508,23.389999389648438,23.549999237060547,22.90999984741211,23.149999618530273,23.790000915527344,23.767824172973633,0.0,-0.16415119171142578,0.039658546447753906,-1.1457136869430542,1777834167803447474
1777834167941377036,23.767824172973633,0.0,-0.16371846199035645,0.03819664195179939,-1.145646572113037,24.360000610351562,24.280000686645508,23.389999389648438,23.549999237060547,22.90999984741211,23.149999618530273,23.790000915527344,23.767824172973633,0.0,-0.16415119171142578,0.039658546447753906,-1.1457136869430542,1777834167803447474
1777834168041144035,275.0936584472656,175.3434600830078,78.51717376708984,243.1045379638672,85.92996978759766,74.1781234741211,24.280000686645508,23.389999389648438,23.549999237060547,22.90999984741211,23.149999618530273,23.790000915527344,23.767824172973633,0.0,-0.16415119171142578,0.039658546447753906,-1.1457136869430542,1777834168030343093
1777834168141123793,275.0936584472656,175.3434600830078,78.51717376708984,243.1045379638672,85.92996978759766,74.1781234741211,24.360000610351562,23.389999389648438,23.469999313354492,22.90999984741211,22.989999771118164,23.709999084472656,23.767824172973633,0.0,-0.1647031307220459,0.03997206687927246,-1.146586298942566,1777834168030343093
1777834168241131143,275.0936584472656,175.3434600830078,78.51717376708984,243.1045379638672,85.92996978759766,74.1781234741211,24.360000610351562,23.389999389648438,23.469999313354492,22.90999984741211,22.989999771118164,23.709999084472656,23.767824172973633,0.0,-0.1647031307220459,0.03997206687927246,-1.146586298942566,1777834168030343093
1777834168340461196,275.0936584472656,175.3434600830078,78.51717376708984,243.1045379638672,85.92996978759766,74.1781234741211,24.360000610351562,23.389999389648438,23.469999313354492,22.90999984741211,23.06999969482422,23.709999084472656,23.767824172973633,0.0,-0.16407647728919983,0.03862142562866211,-1.1459970474243164,1777834168249114502
1777834168441173160,275.0936584472656,175.3434600830078,78.51717376708984,243.1045379638672,85.92996978759766,74.1781234741211,24.360000610351562,23.389999389648438,23.469999313354492,22.90999984741211,23.06999969482422,23.709999084472656,23.767824172973633,0.0,-0.16407647728919983,0.03862142562866211,-1.1459970474243164,1777834168432255002
1777834168540952084,275.0936584472656,175.3434600830078,78.51717376708984,243.1045379638672,85.92996978759766,74.1781234741211,24.360000610351562,23.389999389648438,23.469999313354492,22.90999984741211,23.06999969482422,23.790000915527344,23.767824172973633,0.0,-0.1648004800081253,0.03786802291870117,-1.1460490226745605,1777834168432255002
1777834168641137787,275.0936584472656,175.3434600830078,78.51717376708984,243.1045379638672,85.92996978759766,74.1781234741211,24.360000610351562,23.389999389648438,23.469999313354492,22.90999984741211,23.06999969482422,23.790000915527344,23.767824172973633,0.0,-0.1648004800081253,0.03786802291870117,-1.1460490226745605,1777834168628490099
1777834168741133619,275.0936584472656,175.3434600830078,78.51717376708984,243.1045379638672,85.92996978759766,74.1781234741211,24.360000610351562,23.469999313354492,23.469999313354492,22.90999984741211,22.989999771118164,23.709999084472656,23.767824172973633,0.0,-0.1643526554107666,0.03976980596780777,-1.147600769996643,1777834168628490099
1777834168841141303,275.0936584472656,175.3434600830078,78.51717376708984,243.1045379638672,85.92996978759766,74.1781234741211,24.360000610351562,23.469999313354492,23.469999313354492,22.90999984741211,22.989999771118164,23.709999084472656,23.767824172973633,0.0,-0.1643526554107666,0.03976980596780777,-1.147600769996643,1777834168828554486
1777834168941131006,275.0936584472656,175.3434600830078,78.51717376708984,243.1045379638672,85.92996978759766,74.1781234741211,24.360000610351562,23.469999313354492,23.549999237060547,22.90999984741211,23.149999618530273,23.709999084472656,23.76850128173828,0.0,-0.1640617847442627,0.0380396842956543,-1.145743489265442,1777834168828554486
1777834169041140004,275.0936584472656,175.3434600830078,78.51717376708984,243.1045379638672,85.92996978759766,74.1781234741211,24.360000610351562,23.469999313354492,23.549999237060547,22.90999984741211,23.149999618530273,23.709999084472656,23.76850128173828,0.0,-0.1640617847442627,0.0380396842956543,-1.145743489265442,1777834169032547218
1777834169141133263,275.0936584472656,175.3434600830078,78.51717376708984,243.1045379638672,85.92996978759766,74.1781234741211,24.280000686645508,23.389999389648438,23.469999313354492,22.829999923706055,23.06999969482422,23.709999084472656,23.76850128173828,0.0,-0.16424059867858887,0.03665248304605484,-1.144684076309204,1777834169032547218
1777834169241283391,275.0936584472656,175.3434600830078,78.51717376708984,243.1045379638672,85.92996978759766,74.1781234741211,24.280000686645508,23.389999389648438,23.469999313354492,22.829999923706055,23.06999969482422,23.709999084472656,23.76850128173828,0.0,-0.16424059867858887,0.03665248304605484,-1.144684076309204,1777834169227064662
1777834169341145779,275.0936584472656,175.3434600830078,78.51717376708984,243.1045379638672,85.92996978759766,74.1781234741211,24.280000686645508,23.389999389648438,23.549999237060547,22.90999984741211,23.06999969482422,23.790000915527344,23.76850128173828,0.0,-0.16540446877479553,0.04016518592834473,-1.143505573272705,1777834169227064662
1777834169441156204,275.0936584472656,175.3434600830078,78.51717376708984,243.1045379638672,85.92996978759766,74.1781234741211,24.280000686645508,23.389999389648438,23.549999237060547,22.90999984741211,23.06999969482422,23.790000915527344,23.76850128173828,0.0,-0.16540446877479553,0.04016518592834473,-1.143505573272705,1777834169227064662
1777834169541138832,275.0936584472656,175.3434600830078,78.51717376708984,243.1045379638672,85.92996978759766,74.1781234741211,24.280000686645508,23.469999313354492,23.469999313354492,22.90999984741211,23.06999969482422,23.709999084472656,23.76850128173828,0.0,-0.1638452112674713,0.037957824766635895,-1.1469817161560059,1777834169444273491
1777834169641323905,275.0936584472656,175.3434600830078,78.51717376708984,243.1045379638672,85.92996978759766,74.1781234741211,24.280000686645508,23.469999313354492,23.469999313354492,22.90999984741211,23.06999969482422,23.709999084472656,23.76850128173828,0.0,-0.1638452112674713,0.037957824766635895,-1.1469817161560059,1777834169639435585
1777834169740535531,275.0936584472656,175.3434600830078,78.51717376708984,243.1045379638672,85.92996978759766,74.1781234741211,24.280000686645508,23.469999313354492,23.469999313354492,22.829999923706055,22.989999771118164,23.790000915527344,23.76850128173828,0.0,-0.16368865966796875,0.038830436766147614,-1.1452960968017578,1777834169639435585
1777834169840849050,275.0936584472656,175.3434600830078,78.51717376708984,243.1045379638672,85.92996978759766,74.1781234741211,24.280000686645508,23.469999313354492,23.469999313354492,22.829999923706055,22.989999771118164,23.790000915527344,23.76850128173828,0.0,-0.16368865966796875,0.038830436766147614,-1.1452960968017578,1777834169639435585
1777834169941200198,275.0936584472656,175.3434600830078,78.51717376708984,243.1045379638672,85.92996978759766,74.1781234741211,24.360000610351562,23.309999465942383,23.469999313354492,22.829999923706055,23.06999969482422,23.709999084472656,23.76850128173828,0.0,-0.16436775028705597,0.03639062121510506,-1.1468247175216675,1777834169903931322
1777834170041151456,275.0936584472656,175.3434600830078,78.51717376708984,243.1045379638672,85.92996978759766,74.1781234741211,24.360000610351562,23.309999465942383,23.469999313354492,22.829999923706055,23.06999969482422,23.709999084472656,23.76850128173828,0.0,-0.16436775028705597,0.03639062121510506,-1.1468247175216675,1777834170024738590
1777834170141292529,275.0936584472656,175.3434600830078,78.51717376708984,243.1045379638672,85.92996978759766,74.1781234741211,24.360000610351562,23.389999389648438,23.469999313354492,22.829999923706055,23.149999618530273,23.709999084472656,23.76850128173828,0.0,-0.16516923904418945,0.03453254699707031,-1.1448601484298706,1777834170024738590
1777834170241143139,275.0936584472656,175.3434600830078,78.51717376708984,243.1045379638672,85.92996978759766,74.1781234741211,24.360000610351562,23.389999389648438,23.469999313354492,22.829999923706055,23.149999618530273,23.709999084472656,23.76850128173828,0.0,-0.16516923904418945,0.03453254699707031,-1.1448601484298706,1777834170024738590
1777834170340970693,275.0936584472656,175.3434600830078,78.51717376708984,243.1045379638672,85.92996978759766,74.1781234741211,24.360000610351562,23.389999389648438,23.469999313354492,22.829999923706055,23.149999618530273,23.709999084472656,23.76850128173828,0.0,-0.16516923904418945,0.03453254699707031,-1.1448601484298706,1777834170295121604
1777834170440426616,275.0936584472656,175.3434600830078,78.51717376708984,243.1045379638672,85.92996978759766,74.1781234741211,24.360000610351562,23.309999465942383,23.549999237060547,22.90999984741211,23.149999618530273,23.790000915527344,23.76850128173828,0.0,-0.1637335568666458,0.03991246223449707,-1.1471755504608154,1777834170434075762
1777834170541199506,275.0936584472656,175.3434600830078,78.51717376708984,243.1045379638672,85.92996978759766,74.1781234741211,24.360000610351562,23.309999465942383,23.549999237060547,22.90999984741211,23.149999618530273,23.790000915527344,23.76850128173828,0.0,-0.1637335568666458,0.03991246223449707,-1.1471755504608154,1777834170434075762
1777834170641155616,275.0936584472656,175.3434600830078,78.51717376708984,243.1045379638672,85.92996978759766,74.1781234741211,24.360000610351562,23.309999465942383,23.549999237060547,22.90999984741211,23.149999618530273,23.790000915527344,23.76850128173828,0.0,-0.1637335568666458,0.03991246223449707,-1.1471755504608154,1777834170434075762
1777834170741161392,23.76850128173828,0.0,-0.16292014718055725,0.04039684683084488,-1.1460943222045898,24.360000610351562,74.1781234741211,0.0,0.0,0.0,0.0,0.0,275.0936584472656,175.3434600830078,78.51717376708984,243.1045379638672,85.92996978759766,1777834170693218964
1777834170840775186,23.76850128173828,0.0,-0.16287565231323242,0.039725303649902344,-1.1450270414352417,24.360000610351562,74.1781234741211,0.0,0.0,0.0,0.0,0.0,275.0936584472656,175.3434600830078,78.51717376708984,243.1045379638672,85.92996978759766,1777834170804612258
1777834170941160668,23.76850128173828,0.0,-0.16287565231323242,0.039725303649902344,-1.1450270414352417,24.360000610351562,74.1781234741211,0.0,0.0,0.0,0.0,0.0,275.0936584472656,175.3434600830078,78.51717376708984,243.1045379638672,85.92996978759766,1777834170804612258
1777834171041160407,23.76850128173828,0.0,-0.16287565231323242,0.039725303649902344,-1.1450270414352417,24.360000610351562,74.1781234741211,0.0,0.0,0.0,0.0,0.0,275.0936584472656,175.3434600830078,78.51717376708984,243.1045379638672,85.92996978759766,1777834170804612258
1777834171140557367,23.76850128173828,0.0,-0.16284584999084473,0.03685355186462402,-1.1448482275009155,24.360000610351562,74.1781234741211,0.0,0.0,0.0,0.0,0.0,275.0936584472656,175.3434600830078,78.51717376708984,243.1045379638672,85.92996978759766,1777834171097682825
1777834171241169016,23.76850128173828,0.0,-0.16438999772071838,0.03764430433511734,-1.1463100910186768,24.360000610351562,24.360000610351562,23.469999313354492,23.469999313354492,22.90999984741211,23.149999618530273,23.709999084472656,23.76850128173828,0.0,-0.16421079635620117,0.0370478630065918,-1.1447584629058838,1777834171204731309
1777834171340961737,23.76850128173828,0.0,-0.16438999772071838,0.03764430433511734,-1.1463100910186768,24.360000610351562,24.360000610351562,23.469999313354492,23.469999313354492,22.90999984741211,23.149999618530273,23.709999084472656,23.76850128173828,0.0,-0.16421079635620117,0.0370478630065918,-1.1447584629058838,1777834171204731309
1777834171441164125,275.0936584472656,175.3434600830078,78.51717376708984,243.1045379638672,85.92996978759766,74.1781234741211,24.360000610351562,23.469999313354492,23.469999313354492,22.90999984741211,23.149999618530273,23.709999084472656,23.76850128173828,0.0,-0.16421079635620117,0.0370478630065918,-1.1447584629058838,1777834171434649067
1777834171541231031,275.0936584472656,175.3434600830078,78.51717376708984,243.1045379638672,85.92996978759766,74.1781234741211,24.360000610351562,23.469999313354492,23.549999237060547,22.90999984741211,23.06999969482422,23.790000915527344,23.76850128173828,0.0,-0.16344983875751495,0.03771146014332771,-1.1465044021606445,1777834171434649067
1777834171641170974,275.0936584472656,175.3434600830078,78.51717376708984,243.1045379638672,85.92996978759766,74.1781234741211,24.360000610351562,23.469999313354492,23.549999237060547,22.90999984741211,23.06999969482422,23.790000915527344,23.76850128173828,0.0,-0.16344983875751495,0.03771146014332771,-1.1465044021606445,1777834171434649067
1777834171741382567,275.0936584472656,175.3434600830078,78.51717376708984,243.1045379638672,85.92996978759766,74.1781234741211,24.360000610351562,23.469999313354492,23.469999313354492,22.90999984741211,23.149999618530273,23.709999084472656,23.76850128173828,0.0,-0.16401687264442444,0.038971900939941406,-1.14656400680542,1777834171679203001
1777834171840626415,275.0936584472656,175.3434600830078,78.51717376708984,243.1045379638672,85.92996978759766,74.1781234741211,24.360000610351562,23.469999313354492,23.469999313354492,22.90999984741211,23.149999618530273,23.709999084472656,23.76850128173828,0.0,-0.16401687264442444,0.038971900939941406,-1.14656400680542,1777834171679203001
1777834171941174193,275.0936584472656,175.3434600830078,78.51717376708984,243.1045379638672,85.92996978759766,74.1781234741211,24.360000610351562,23.469999313354492,23.469999313354492,22.90999984741211,23.06999969482422,23.709999084472656,23.76850128173828,0.0,-0.16421833634376526,0.036472875624895096,-1.146026849746704,1777834171843426442
1777834172041169211,275.0936584472656,175.3434600830078,78.51717376708984,243.1045379638672,85.92996978759766,74.1781234741211,24.360000610351562,23.469999313354492,23.469999313354492,22.90999984741211,23.06999969482422,23.709999084472656,23.76850128173828,0.0,-0.16421833634376526,0.036472875624895096,-1.146026849746704,1777834171843426442
1777834172141172561,275.0936584472656,175.3434600830078,78.51717376708984,243.1045379638672,85.92996978759766,74.1781234741211,24.360000610351562,23.469999313354492,23.469999313354492,22.90999984741211,23.06999969482422,23.709999084472656,23.76850128173828,0.0,-0.16421833634376526,0.036472875624895096,-1.146026849746704,1777834171843426442
1777834172241175986,275.0936584472656,175.3434600830078,78.51717376708984,243.1045379638672,85.92996978759766,74.1781234741211,24.360000610351562,23.469999313354492,23.469999313354492,22.90999984741211,23.06999969482422,23.709999084472656,23.76850128173828,0.0,-0.16421833634376526,0.036472875624895096,-1.146026849746704,1777834171843426442
1777834172341386893,275.0936584472656,175.3434600830078,78.51717376708984,243.1045379638672,85.92996978759766,74.1781234741211,24.360000610351562,23.469999313354492,23.469999313354492,22.90999984741211,23.06999969482422,23.709999084472656,23.76850128173828,0.0,-0.16421833634376526,0.036472875624895096,-1.146026849746704,1777834171843426442
1777834172441174484,275.0936584472656,175.3434600830078,78.51717376708984,243.1045379638672,85.92996978759766,74.1781234741211,24.360000610351562,23.469999313354492,23.469999313354492,22.90999984741211,23.06999969482422,23.709999084472656,23.76850128173828,0.0,-0.16421833634376526,0.036472875624895096,-1.146026849746704,1777834171843426442
1777834172540469110,275.0936584472656,175.3434600830078,78.51717376708984,243.1045379638672,85.92996978759766,74.1781234741211,24.360000610351562,23.389999389648438,23.549999237060547,22.90999984741211,23.06999969482422,23.790000915527344,23.76850128173828,0.0,-0.16483266651630402,0.0353693962097168,-1.1460847854614258,1777834172474975590
1777834172641212185,275.0936584472656,175.3434600830078,78.51717376708984,243.1045379638672,85.92996978759766,74.1781234741211,24.360000610351562,23.389999389648438,23.469999313354492,22.90999984741211,23.06999969482422,23.709999084472656,23.76850128173828,0.0,-0.16474802792072296,0.035824377089738846,-1.1438560485839844,1777834172620775714
1777834172741187221,275.0936584472656,175.3434600830078,78.51717376708984,243.1045379638672,85.92996978759766,74.1781234741211,24.360000610351562,23.389999389648438,23.469999313354492,22.90999984741211,23.06999969482422,23.709999084472656,23.76850128173828,0.0,-0.16474802792072296,0.035824377089738846,-1.1438560485839844,1777834172620775714
1777834172841187701,275.0936584472656,175.3434600830078,78.51717376708984,243.1045379638672,85.92996978759766,74.1781234741211,24.360000610351562,23.389999389648438,23.469999313354492,22.90999984741211,23.149999618530273,23.790000915527344,23.76850128173828,0.0,-0.16465821862220764,0.03865162283182144,-1.1468175649642944,1777834172820845452
1777834172941183126,275.0936584472656,175.3434600830078,78.51717376708984,243.1045379638672,85.92996978759766,74.1781234741211,24.360000610351562,23.389999389648438,23.469999313354492,22.90999984741211,23.149999618530273,23.790000915527344,23.76850128173828,0.0,-0.16465821862220764,0.03865162283182144,-1.1468175649642944,1777834172820845452
1777834173041270922,23.76850128173828,0.0,-0.16543705761432648,0.03701050952076912,-1.1458356380462646,24.440000534057617,24.360000610351562,23.389999389648438,23.549999237060547,22.90999984741211,23.149999618530273,23.790000915527344,23.76850128173828,0.0,-0.16274888813495636,0.036207832396030426,-1.14656400680542,1777834173020931987
1777834173141244346,23.76850128173828,0.0,-0.16543705761432648,0.03701050952076912,-1.1458356380462646,24.440000534057617,24.360000610351562,23.389999389648438,23.549999237060547,22.90999984741211,23.149999618530273,23.790000915527344,23.76850128173828,0.0,-0.16274888813495636,0.036207832396030426,-1.14656400680542,1777834173020931987
1777834173241196364,23.76850128173828,0.0,-0.16543705761432648,0.03701050952076912,-1.1458356380462646,24.440000534057617,24.360000610351562,23.389999389648438,23.549999237060547,22.90999984741211,23.149999618530273,23.790000915527344,23.76850128173828,0.0,-0.16274888813495636,0.036207832396030426,-1.14656400680542,1777834173020931987
1777834173341199362,23.76850128173828,0.0,-0.1637335568666458,0.036301612854003906,-1.1442959308624268,24.360000610351562,74.1781234741211,0.0,0.0,0.0,0.0,0.0,275.0936584472656,175.3434600830078,78.51717376708984,243.1045379638672,85.92996978759766,1777834173253561810
1777834173441191028,23.76850128173828,0.0,-0.16509850323200226,0.03568211942911148,-1.1462879180908203,24.360000610351562,74.1781234741211,0.0,0.0,0.0,0.0,0.0,275.0936584472656,175.3434600830078,78.51717376708984,243.1045379638672,85.92996978759766,1777834173421051076
1777834173541218342,23.76850128173828,0.0,-0.16509850323200226,0.03568211942911148,-1.1462879180908203,24.360000610351562,24.360000610351562,23.469999313354492,23.549999237060547,22.90999984741211,23.06999969482422,23.790000915527344,23.76850128173828,0.0,-0.1632857322692871,0.038046836853027344,-1.1464968919754028,1777834173421051076
