timestamp_ns,joint_1_pos,joint_2_pos,joint_3_pos,joint_4_pos,joint_5_pos,joint_6_pos,joint_1_vel,joint_2_vel,joint_3_vel,joint_4_vel,joint_5_vel,joint_6_vel,joint_1_current,joint_2_current,joint_3_current,joint_4_current,joint_5_current,joint_6_current,joint_1_temp,joint_2_temp,joint_3_temp,joint_4_temp,joint_5_temp,joint_6_temp,bus_voltage,bus_current,accel_x,accel_y,accel_z,timestamp_ns
1780984941148671164,,,,,,,,,,,,,,,,,,,,,,,,,,,,,,
1780984941248794440,-9.32020871091568e-6,57.28971087272522,103.13258103786504,-0.00035294912231239364,-0.002881460495018363,0.00006917630220571822,-0.007504212898898219,0.004307994405064994,0.004190700470104578,-0.06747815211924849,-0.01163348049003196,0.015351607923405373,0.10205094410115016,5.933055740325759,2.7758368284077606,0.3665370209124876,0.31936810483219896,0.11930485090497892,25.0,25.0,25.0,25.0,25.0,25.0,24.0,9.616,0.0,0.0,1.0,1780984941245439022
1780984941349040996,-2.3311124843711313e-6,57.28970102245039,103.13257144612676,-0.0002795427875989537,-0.002869030550559368,0.00005366731654368262,-0.004965606041928237,0.0029775699407830606,0.0029992754994774685,-0.044956562081282014,-0.00778979303368941,0.010237034778286348,0.10120713981375196,5.934634449919689,2.776819568352987,0.3665956286474975,0.31912730729970984,0.11931688695152218,25.0,25.0,25.0,25.0,25.0,25.0,24.0,9.618,0.0,0.0,1.0,1780984941321037312
1780984941449664017,-2.3311124843711313e-6,57.28970102245039,103.13257144612676,-0.0002795427875989537,-0.002869030550559368,0.00005366731654368262,-0.004965606041928237,0.0029775699407830606,0.0029992754994774685,-0.044956562081282014,-0.00778979303368941,0.010237034778286348,0.10120713981375196,5.934634449919689,2.776819568352987,0.3665956286474975,0.31912730729970984,0.11931688695152218,25.0,25.0,25.0,25.0,25.0,25.0,24.0,9.618,0.0,0.0,1.0,1780984941321037312
1780984941549389636,-0.000014743091538801112,57.28971196743158,103.13258378798136,-0.0003987607644886339,-0.0028906675019042647,0.00008044941024644116,-0.009371372231343447,0.005361277087776268,0.005152028272003761,-0.08418154938103299,-0.014467156843856957,0.0191256103011456,0.10167363484767904,5.933675264690394,2.776375210716313,0.3664878109748649,0.3190732240679978,0.11928337016716588,25.0,25.0,25.0,25.0,25.0,25.0,24.0,9.617,0.0,0.0,1.0,1780984941542789836
1780984941649420345,-0.00001508559549319186,57.289681131829234,103.13255428969676,-0.0003589226328589046,-0.0028752596583878835,0.00007199787651456909,0.0011621598797762942,-0.007248287165053053,-0.006707223567832057,0.018891979792127967,0.004936392559358179,-0.00430256410166766,0.09087977704873122,5.9556314479553745,2.7937296931849183,0.3695471141370557,0.3148231669096183,0.12007910162375048,25.0,25.0,25.0,25.0,25.0,25.0,24.0,9.645,0.0,0.0,1.0,1780984941586235772
1780984941749543532,-0.00001508559549319186,57.289681131829234,103.13255428969676,-0.0003589226328589046,-0.0028752596583878835,0.00007199787651456909,0.0011621598797762942,-0.007248287165053053,-0.006707223567832057,0.018891979792127967,0.004936392559358179,-0.00430256410166766,0.09087977704873122,5.9556314479553745,2.7937296931849183,0.3695471141370557,0.3148231669096183,0.12007910162375048,25.0,25.0,25.0,25.0,25.0,25.0,24.0,9.645,0.0,0.0,1.0,1780984941586235772
1780984941849420762,-2.2425823006140782e-6,57.28968775987778,103.13255976679092,-0.00026186286292866675,-0.002863381496230558,0.000049797637879120494,0.001623354956631459,-0.0031378240784843336,-0.0024814982665431495,0.016903681533536302,0.002624600801397625,-0.003788687353463803,0.09285741319475492,5.950032917562415,2.786983917829087,0.3688694571620762,0.3176729934601028,0.11994474670187336,25.0,25.0,25.0,25.0,25.0,25.0,24.0,9.636,0.0,0.0,1.0,1780984941842745391
1780984941949419462,4.782276925052282e-6,57.28970025936075,103.13257012222816,-0.00022021791598021877,-0.002857918151167342,0.00003952496302874083,-0.003650627378403206,0.002242780320397335,0.0023000205058508996,-0.033258716082530386,-0.005804354343420838,0.007568058403773014,0.10195994390045005,5.933072978185668,2.7758498572921493,0.3665439703437193,0.31936653528635905,0.1193062898241622,25.0,25.0,25.0,25.0,25.0,25.0,24.0,9.616,0.0,0.0,1.0,1780984941905823102
1780984942049436456,4.782276925052282e-6,57.28970025936075,103.13257012222816,-0.00022021791598021877,-0.002857918151167342,0.00003952496302874083,-0.003650627378403206,0.002242780320397335,0.0023000205058508996,-0.033258716082530386,-0.005804354343420838,0.007568058403773014,0.10195994390045005,5.933072978185668,2.7758498572921493,0.3665439703437193,0.31936653528635905,0.1193062898241622,25.0,25.0,25.0,25.0,25.0,25.0,24.0,9.616,0.0,0.0,1.0,1780984941905823102
1780984942148923259,0.00002279296365373518,57.28969030632597,103.13256045003352,-0.00005590855073339563,-0.0028299692794027456,3.010725654433216e-6,0.0013238589922706997,-0.000515320920782422,-0.00031988606020310066,0.011139526829973394,0.0018276038131590723,-0.002554673641386353,0.10255680990687964,5.931594333155003,2.775278867275236,0.3662714536860901,0.3190837299942852,0.11922288414882654,25.0,25.0,25.0,25.0,25.0,25.0,24.0,9.614,0.0,0.0,1.0,1780984942130426891
1780984942249218237,-5.064165579916681e-6,57.28969326664729,103.13256356985671,-0.00028477491378824197,-0.002869615677353941,0.00005654245218364105,0.0016219535252258671,-0.003536363859086166,-0.002931788081037043,0.017959234098634615,0.002780038691484645,-0.003885356139776645,0.0925483935865298,5.95104807368048,2.7878544779766674,0.3691592320509112,0.31758338321671076,0.12004312443545326,25.0,25.0,25.0,25.0,25.0,25.0,24.0,9.638,0.0,0.0,1.0,1780984942168573777
1780984942349689242,0.000010270805300570013,57.28969380631558,103.1325608216946,-0.00015809766673196304,-0.002846418443611071,0.00002668380691033966,0.0015664992927221502,-0.000895298305591062,-0.0010069513017853422,0.0138455595225303,0.0025294033139165624,-0.0033265856533194137,0.09628859715222608,5.946040559527258,2.78459258829063,0.36749794317638007,0.3169838445851261,0.11952914675475468,25.0,25.0,25.0,25.0,25.0,25.0,24.0,9.631,0.0,0.0,1.0,1780984942342960781
1780984942449452104,4.970238384895831e-6,57.2897006237825,103.1325677881154,-0.0002087885079121624,-0.0028563846034193965,0.00003900771556716486,-0.0034824744392426125,0.0021196022609372045,0.0022677133409697917,-0.03197902001301224,-0.005579654420696597,0.007229581978440754,0.10179651629949424,5.933424318173859,2.77609721602499,0.3665641699640338,0.31928924381012475,0.11931155005474683,25.0,25.0,25.0,25.0,25.0,25.0,24.0,9.616,0.0,0.0,1.0,1780984942422235957
1780984942548960413,4.970238384895831e-6,57.2897006237825,103.1325677881154,-0.0002087885079121624,-0.0028563846034193965,0.00003900771556716486,-0.0034824744392426125,0.0021196022609372045,0.0022677133409697917,-0.03197902001301224,-0.005579654420696597,0.007229581978440754,0.10179651629949424,5.933424318173859,2.77609721602499,0.3665641699640338,0.31928924381012475,0.11931155005474683,25.0,25.0,25.0,25.0,25.0,25.0,24.0,9.616,0.0,0.0,1.0,1780984942422235957
1780984942649482548,0.000017937682549840304,57.28969480636787,103.1325611651513,-0.0000962729530576686,-0.002835860911704852,0.000012226190295688178,0.0014329808290901977,-0.00033325054792225303,-0.0004554762846004132,0.012620411921141632,0.0021513882638086092,-0.002818918821447547,0.10315712283675305,5.932298407482931,2.775950481896014,0.3663220805697807,0.31862937482801135,0.1192581084263218,25.0,25.0,25.0,25.0,25.0,25.0,24.0,9.616,0.0,0.0,1.0,1780984942642960397
1780984942749837471,9.734060717149589e-6,57.289696663361205,103.13256258214814,-0.00016588017968632436,-0.002847644238025041,0.00002812819479195339,0.0015831562317360683,-0.0009489569220558578,-0.001035062997005007,0.014098317709980587,0.002557119147134563,-0.003361568613144609,0.09632893387971142,5.9458823548899575,2.7844840381128493,0.3674963915429176,0.3170131785644059,0.11953045241279496,25.0,25.0,25.0,25.0,25.0,25.0,24.0,9.631,0.0,0.0,1.0,1780984942679108128
1780984942849025407,9.734060717149589e-6,57.289696663361205,103.13256258214814,-0.00016588017968632436,-0.002847644238025041,0.00002812819479195339,0.0015831562317360683,-0.0009489569220558578,-0.001035062997005007,0.014098317709980587,0.002557119147134563,-0.003361568613144609,0.09632893387971142,5.9458823548899575,2.7844840381128493,0.3674963915429176,0.3170131785644059,0.11953045241279496,25.0,25.0,25.0,25.0,25.0,25.0,24.0,9.631,0.0,0.0,1.0,1780984942679108128
1780984942949609230,0.00001986153823231783,57.289692427494096,103.13256098187044,-0.00008363795287508714,-0.0028344287032132194,8.673598985127228e-6,0.001402498669949049,-0.0005688721570207687,-0.00032243845332745503,0.011887389289704653,0.001945219677350687,-0.0026845960687770227,0.10216425376319846,5.932251460573258,2.77531677274801,0.3665075901763965,0.3195187441493014,0.11929667002779952,25.0,25.0,25.0,25.0,25.0,25.0,24.0,9.615,0.0,0.0,1.0,1780984942934356520
1780984943049692820,0.00001986153823231783,57.289692427494096,103.13256098187044,-0.00008363795287508714,-0.0028344287032132194,8.673598985127228e-6,0.001402498669949049,-0.0005688721570207687,-0.00032243845332745503,0.011887389289704653,0.001945219677350687,-0.0026845960687770227,0.10216425376319846,5.932251460573258,2.77531677274801,0.3665075901763965,0.3195187441493014,0.11929667002779952,25.0,25.0,25.0,25.0,25.0,25.0,24.0,9.615,0.0,0.0,1.0,1780984942934356520
1780984943149595904,4.773989689573387e-6,57.28969899296618,103.13256901182608,-0.00021937379263412137,-0.002858188386002381,0.00003940312675797172,-0.003169408564893956,0.0019735958351073334,0.0020578738537441505,-0.028910242394481735,-0.005051739460167972,0.006595603658955874,0.1013641895094735,5.933821485877663,2.7762666544519825,0.3666017881431302,0.3192933140955196,0.1193208905883472,25.0,25.0,25.0,25.0,25.0,25.0,24.0,9.617,0.0,0.0,1.0,1780984943143057979
1780984943248873522,0.000011931414899363614,57.28969594417466,103.13256471483632,-0.0001531667043297016,-0.0028456586657349256,0.000024699822951880668,-0.0014903371046213062,0.0010543568837486574,0.0012294212923521029,-0.0140924089438689,-0.0025406039248098695,0.0031965502161175946,0.10209432476012012,5.932401065357265,2.775413496307179,0.36654262229262496,0.31949311778587136,0.1193074027852091,25.0,25.0,25.0,25.0,25.0,25.0,24.0,9.615,0.0,0.0,1.0,1780984943204303533
1780984943349258992,0.000011931414899363614,57.28969594417466,103.13256471483632,-0.0001531667043297016,-0.0028456586657349256,0.000024699822951880668,-0.0014903371046213062,0.0010543568837486574,0.0012294212923521029,-0.0140924089438689,-0.0025406039248098695,0.0031965502161175946,0.10209432476012012,5.932401065357265,2.775413496307179,0.36654262229262496,0.31949311778587136,0.1193074027852091,25.0,25.0,25.0,25.0,25.0,25.0,24.0,9.615,0.0,0.0,1.0,1780984943204303533
1780984943449006995,9.15952320533329e-6,57.28969861832018,103.13256838900207,-0.0001821662082749216,-0.0028510530719318434,0.00003077556699729416,-0.002254883344938682,0.0014743450240469443,0.0015738385442541272,-0.02085771955094604,-0.00368002389718182,0.0047374437352902055,0.1022327581921818,5.931940287072862,2.7751036202971098,0.3665338101442916,0.3195836769645857,0.1193059162983702,25.0,25.0,25.0,25.0,25.0,25.0,24.0,9.615,0.0,0.0,1.0,1780984943442190438
1780984943549665246,3.428156023942069e-6,57.28969470667463,103.1325642568588,-0.0002226285183382147,-0.0028583543202124386,0.00004025182367974983,0.0017690631069381929,-0.000511818012000304,-0.0010308203893653394,0.015705635549237994,0.002974526749016206,-0.003657049145267797,0.10392508674804854,5.933832330504281,2.777564474525233,0.365290280003449,0.3163856538612609,0.1188890844374116,25.0,25.0,25.0,25.0,25.0,25.0,24.0,9.616,0.0,0.0,1.0,1780984943460101616
1780984943649240519,-8.839765136463395e-6,57.28969019158981,103.13256316800629,-0.0003197002056396657,-0.0028748744856784457,0.00006342569586276845,0.0014929801774622483,-0.0045762168573898945,-0.0042077034888249034,0.018780967548682557,0.003575792898582039,-0.00406117524365722,0.0916255551650554,5.953319454920313,2.790332218587453,0.3693736757648663,0.3165223884729769,0.12008216777645922,25.0,25.0,25.0,25.0,25.0,25.0,24.0,9.641,0.0,0.0,1.0,1780984943649010817
1780984943749580310,0.000013135119720541729,57.28968859300985,103.13255923444449,-0.00013438761689900838,-0.002843766245028142,0.000020927154046393607,0.0015586506928003216,-0.0000375100785378158,-0.0004287665959284955,0.013765390152420436,0.0024261866490559738,-0.00304019724502087,0.10326381538888778,5.932327765284627,2.7756935003719567,0.3664915630012835,0.3190473667304961,0.11931136906289258,25.0,25.0,25.0,25.0,25.0,25.0,24.0,9.616,0.0,0.0,1.0,1780984943710342019
1780984943849133268,0.000013135119720541729,57.28968859300985,103.13255923444449,-0.00013438761689900838,-0.002843766245028142,0.000020927154046393607,0.0015586506928003216,-0.0000375100785378158,-0.0004287665959284955,0.013765390152420436,0.0024261866490559738,-0.00304019724502087,0.10326381538888778,5.932327765284627,2.7756935003719567,0.3664915630012835,0.3190473667304961,0.11931136906289258,25.0,25.0,25.0,25.0,25.0,25.0,24.0,9.616,0.0,0.0,1.0,1780984943710342019
1780984943950026129,0.000014091047269605166,57.28968848047624,103.13255911160591,-0.00012736160749193205,-0.002842482203884991,0.00001899743202083028,0.001532840801770486,-0.00007831525385640241,-0.0004131910575283134,0.013546091619502876,0.0023697380548448957,-0.002982689621219417,0.1029509762398004,5.932686113209168,2.7759074804740256,0.3664836069183716,0.3190134297657285,0.11930281941731952,25.0,25.0,25.0,25.0,25.0,25.0,24.0,9.616,0.0,0.0,1.0,1780984943938868130
1780984944048963997,0.000017646185059183503,57.289687905916374,103.13255938872685,-0.00010046822840466617,-0.002837886428155219,0.000012276763284184773,0.001446473090226591,-0.00020461893498835255,-0.0003670479432254556,0.0126377401309428,0.0021699434569029067,-0.002794464914929337,0.10254852331012594,5.932363359724615,2.7755763610800517,0.3664753955115433,0.3192385953359218,0.11929144107437656,25.0,25.0,25.0,25.0,25.0,25.0,24.0,9.615,0.0,0.0,1.0,1780984944011060089
1780984944149149033,0.000017646185059183503,57.289687905916374,103.13255938872685,-0.00010046822840466617,-0.002837886428155219,0.000012276763284184773,0.001446473090226591,-0.00020461893498835255,-0.0003670479432254556,0.0126377401309428,0.0021699434569029067,-0.002794464914929337,0.10254852331012594,5.932363359724615,2.7755763610800517,0.3664753955115433,0.3192385953359218,0.11929144107437656,25.0,25.0,25.0,25.0,25.0,25.0,24.0,9.615,0.0,0.0,1.0,1780984944011060089
1780984944248817752,0.000017646185059183503,57.289687905916374,103.13255938872685,-0.00010046822840466617,-0.002837886428155219,0.000012276763284184773,0.001446473090226591,-0.00020461893498835255,-0.0003670479432254556,0.0126377401309428,0.0021699434569029067,-0.002794464914929337,0.10254852331012594,5.932363359724615,2.7755763610800517,0.3664753955115433,0.3192385953359218,0.11929144107437656,25.0,25.0,25.0,25.0,25.0,25.0,24.0,9.615,0.0,0.0,1.0,1780984944011060089
1780984944349207308,0.000010339194661453529,57.28969620357312,103.1325644100249,-0.00016575957817727317,-0.002848487958439729,0.000027432667988516576,0.0015498587614898368,-0.0014842975053754005,-0.0012964632470458609,0.01359798617188982,0.002511763477490879,-0.003393178451036109,0.09531577298393684,5.946580570970633,2.784752778577292,0.367722667999662,0.31717329360021446,0.11958491008341676,25.0,25.0,25.0,25.0,25.0,25.0,24.0,9.631,0.0,0.0,1.0,1780984944329760960
1780984944448963952,0.000010339194661453529,57.28969620357312,103.1325644100249,-0.00016575957817727317,-0.002848487958439729,0.000027432667988516576,0.0015498587614898368,-0.0014842975053754005,-0.0012964632470458609,0.01359798617188982,0.002511763477490879,-0.003393178451036109,0.09531577298393684,5.946580570970633,2.784752778577292,0.367722667999662,0.31717329360021446,0.11958491008341676,25.0,25.0,25.0,25.0,25.0,25.0,24.0,9.631,0.0,0.0,1.0,1780984944329760960
1780984944549496663,5.58390823820709e-7,57.28969285636771,103.132560484851,-0.00023998235056490804,-0.002859894411295407,0.00004477803366379916,0.001830464581035556,-0.00060855926788752,-0.0010902229939662195,0.01579759718070374,0.003076882854459736,-0.003800539937356981,0.10360456964459032,5.933082212125732,2.776375070697353,0.3651120515402074,0.3168649628124246,0.1188256688900486,25.0,25.0,25.0,25.0,25.0,25.0,24.0,9.614,0.0,0.0,1.0,1780984944542892006
1780984944650348170,0.00001841466382122035,57.28969039262304,103.13255855970424,-0.00008922353316774412,-0.002835581312420267,0.000010968796185063992,0.0014400921956874146,-0.0004869545358733415,-0.0002643173248034952,0.012092946511375244,0.0019899630955280195,-0.002739662743669252,0.10143586035356274,5.932904793392083,2.775657120126726,0.3665876534044375,0.31948380230997103,0.1193177274897218,25.0,25.0,25.0,25.0,25.0,25.0,24.0,9.615,0.0,0.0,1.0,1780984944623568364
1780984944749553515,0.00001841466382122035,57.28969039262304,103.13255855970424,-0.00008922353316774412,-0.002835581312420267,0.000010968796185063992,0.0014400921956874146,-0.0004869545358733415,-0.0002643173248034952,0.012092946511375244,0.0019899630955280195,-0.002739662743669252,0.10143586035356274,5.932904793392083,2.775657120126726,0.3665876534044375,0.31948380230997103,0.1193177274897218,25.0,25.0,25.0,25.0,25.0,25.0,24.0,9.615,0.0,0.0,1.0,1780984944623568364
1780984944849091441,3.7593158856342503e-6,57.28969271291846,103.13256207824752,-0.00021454787657842968,-0.0028576225442224984,0.00003933859344631204,0.001753714657619299,-0.0005036022193921448,-0.0010349229050152363,0.015347322999033313,0.0029841375646429713,-0.00364002786502927,0.10364982870309744,5.933880175297895,2.7775081014852727,0.3651912470815879,0.3163075031378852,0.11884567084363826,25.0,25.0,25.0,25.0,25.0,25.0,24.0,9.615,0.0,0.0,1.0,1780984944840448029
1780984944949058694,2.5245141510744016e-6,57.28970314628536,103.13257043039596,-0.00023396348632214608,-0.002861022784848311,0.000044381525896996816,-0.0043075360079966735,0.0025521749324117324,0.002659633199109637,-0.039256290635733666,-0.006815995547731186,0.008893286902409087,0.10148369023578507,5.933584627800402,2.7761957727079065,0.3666191341467647,0.31926447806584984,0.11932696600554932,25.0,25.0,25.0,25.0,25.0,25.0,24.0,9.616,0.0,0.0,1.0,1780984944899136297
1780984945049211680,2.5245141510744016e-6,57.28970314628536,103.13257043039596,-0.00023396348632214608,-0.002861022784848311,0.000044381525896996816,-0.0043075360079966735,0.0025521749324117324,0.002659633199109637,-0.039256290635733666,-0.006815995547731186,0.008893286902409087,0.10148369023578507,5.933584627800402,2.7761957727079065,0.3666191341467647,0.31926447806584984,0.11932696600554932,25.0,25.0,25.0,25.0,25.0,25.0,24.0,9.616,0.0,0.0,1.0,1780984944899136297
1780984945148643233,1.024813301371275e-6,57.28969310352532,103.1325653884911,-0.00024599023757223746,-0.0028633189386678788,0.00004534314345610511,0.0016528123912531952,-0.0028940124319560123,-0.002118414481774455,0.01581260235114068,0.002645113931707203,-0.0037927525257250142,0.0930913996093988,5.948327524318605,2.785575545265224,0.36849329803336855,0.31784096850734916,0.11981642112935148,25.0,25.0,25.0,25.0,25.0,25.0,24.0,9.633,0.0,0.0,1.0,1780984945126305733
1780984945249511975,0.000019160426160957153,57.28969200351792,103.13256139725416,-0.00009039553540037944,-0.0028356877384514796,9.925179343164643e-6,0.0014007033841837613,-0.00026474138903525717,-0.000457851108065898,0.012460747672682671,0.002143419629689287,-0.0027534417418484452,0.10267481320186718,5.932539236878249,2.7760715472612483,0.3663767759296897,0.3186400183404993,0.1192695108638588,25.0,25.0,25.0,25.0,25.0,25.0,24.0,9.616,0.0,0.0,1.0,1780984945186180036
1780984945349436169,0.000019160426160957153,57.28969200351792,103.13256139725416,-0.00009039553540037944,-0.0028356877384514796,9.925179343164643e-6,0.0014007033841837613,-0.00026474138903525717,-0.000457851108065898,0.012460747672682671,0.002143419629689287,-0.0027534417418484452,0.10267481320186718,5.932539236878249,2.7760715472612483,0.3663767759296897,0.3186400183404993,0.1192695108638588,25.0,25.0,25.0,25.0,25.0,25.0,24.0,9.616,0.0,0.0,1.0,1780984945186180036
1780984945450697352,0.000018754120178929437,57.289690395612666,103.13256046624718,-0.00009010670832802217,-0.002835865336742067,0.000010512987891107052,0.001388541160742974,-0.0002403320129040619,-0.000548458393275216,0.012867071319025454,0.0021724190875249544,-0.002808237191198523,0.09830489311293394,5.9427163533872065,2.7824526241190863,0.3672737871793013,0.3173642380114039,0.11949857174243927,25.0,25.0,25.0,25.0,25.0,25.0,24.0,9.628,0.0,0.0,1.0,1780984945442696041
1780984945548927846,0.000018754120178929437,57.289690395612666,103.13256046624718,-0.00009010670832802217,-0.002835865336742067,0.000010512987891107052,0.001388541160742974,-0.0002403320129040619,-0.000548458393275216,0.012867071319025454,0.0021724190875249544,-0.002808237191198523,0.09830489311293394,5.9427163533872065,2.7824526241190863,0.3672737871793013,0.3173642380114039,0.11949857174243927,25.0,25.0,25.0,25.0,25.0,25.0,24.0,9.628,0.0,0.0,1.0,1780984945442696041
1780984945648747960,0.00001714793050471396,57.289691886598305,103.13256032616106,-0.00009998711262794126,-0.0028371675362986746,0.000013632187723590071,0.0014135380024864917,-0.0005272538210104608,-0.0007084557411699175,0.01293621561740008,0.0022071732226688952,-0.002933213715327405,0.09755972608044657,5.94410815286521,2.7833765052867654,0.3674456494583944,0.3171898571557868,0.11953956565281412,25.0,25.0,25.0,25.0,25.0,25.0,24.0,9.629,0.0,0.0,1.0,1780984945647189978
1780984945749013242,0.000017854765529962662,57.28968919278196,103.13255970474356,-0.00009867968331672092,-0.002837318049066693,0.0000120458270745029,0.0014452950211689768,-0.00028825084504942094,-0.0003544690667654431,0.012515250424670834,0.0021271984038307504,-0.0027848801693131225,0.10224119105801052,5.932181504897832,2.775398125353771,0.3665038205196088,0.31935435057101286,0.11929673887398597,25.0,25.0,25.0,25.0,25.0,25.0,24.0,9.615,0.0,0.0,1.0,1780984945710784297
1780984945848956773,0.000017854765529962662,57.28968919278196,103.13255970474356,-0.00009867968331672092,-0.002837318049066693,0.0000120458270745029,0.0014452950211689768,-0.00028825084504942094,-0.0003544690667654431,0.012515250424670834,0.0021271984038307504,-0.0027848801693131225,0.10224119105801052,5.932181504897832,2.775398125353771,0.3665038205196088,0.31935435057101286,0.11929673887398597,25.0,25.0,25.0,25.0,25.0,25.0,24.0,9.615,0.0,0.0,1.0,1780984945710784297
1780984945949695073,-6.014395429176888e-6,57.28970700742745,103.13257737764368,-0.00032233143621662546,-0.002875852096826122,0.00006192892092890698,-0.0060309551668541175,0.0035142275061360905,0.003458504759987539,-0.054295507911348115,-0.009387413436231642,0.01238221220266686,0.10106386600450278,5.933866467541581,2.7762888683700533,0.3666616856291349,0.31929112075855665,0.11933817497170562,25.0,25.0,25.0,25.0,25.0,25.0,24.0,9.617,0.0,0.0,1.0,1780984945931704405
1780984946050634409,0.000014936991527545431,57.289691657137595,103.13256365035718,-0.00013005453088739153,-0.0028434888795037384,0.000018790300068991893,0.00010434453330737686,0.00021492680304316384,0.00037287279788136986,0.00027825572648717135,-0.00003288574949404586,-0.000036790948883251546,0.10125427007021744,5.9330937276279725,2.77577536806688,0.36662411005652434,0.3194475505317737,0.11932801933395852,25.0,25.0,25.0,25.0,25.0,25.0,24.0,9.616,0.0,0.0,1.0,1780984945974569041
1780984946149612810,0.000014936991527545431,57.289691657137595,103.13256365035718,-0.00013005453088739153,-0.0028434888795037384,0.000018790300068991893,0.00010434453330737686,0.00021492680304316384,0.00037287279788136986,0.00027825572648717135,-0.00003288574949404586,-0.000036790948883251546,0.10125427007021744,5.9330937276279725,2.77577536806688,0.36662411005652434,0.3194475505317737,0.11932801933395852,25.0,25.0,25.0,25.0,25.0,25.0,24.0,9.616,0.0,0.0,1.0,1780984945974569041
1780984946251897642,0.00001636297353093145,57.2896869265885,103.13255482164722,-0.0001014795993152556,-0.0028355467389344123,0.000013620655540202432,0.0014888327907864026,-0.00027386709085808474,-0.00019753362816270052,0.012549783235248984,0.00205130869242683,-0.002813502197527898,0.10134496596170602,5.932559471891088,2.775426854338608,0.36660480217830427,0.3195595275317056,0.11932270983654215,25.0,25.0,25.0,25.0,25.0,25.0,24.0,9.615,0.0,0.0,1.0,1780984946240541038
1780984946349007890,0.00001636297353093145,57.2896869265885,103.13255482164722,-0.0001014795993152556,-0.0028355467389344123,0.000013620655540202432,0.0014888327907864026,-0.00027386709085808474,-0.00019753362816270052,0.012549783235248984,0.00205130869242683,-0.002813502197527898,0.10134496596170602,5.932559471891088,2.775426854338608,0.36660480217830427,0.3195595275317056,0.11932270983654215,25.0,25.0,25.0,25.0,25.0,25.0,24.0,9.615,0.0,0.0,1.0,1780984946240541038
1780984946449316837,0.00001636297353093145,57.2896869265885,103.13255482164722,-0.0001014795993152556,-0.0028355467389344123,0.000013620655540202432,0.0014888327907864026,-0.00027386709085808474,-0.00019753362816270052,0.012549783235248984,0.00205130869242683,-0.002813502197527898,0.10134496596170602,5.932559471891088,2.775426854338608,0.36660480217830427,0.3195595275317056,0.11932270983654215,25.0,25.0,25.0,25.0,25.0,25.0,24.0,9.615,0.0,0.0,1.0,1780984946240541038
1780984946551425557,-4.325190361669776e-6,57.28970240695025,103.1325738443345,-0.0002994408114882579,-0.0028724414900784313,0.00005825395299280447,-0.0063975394646653225,0.0038081381722842025,0.0037395547915607865,-0.05778423317069965,-0.009989591348473398,0.013130379264524674,0.1009578908017639,5.93412480914963,2.7766632839738317,0.3665965286986814,0.3190052522314223,0.11931299997894018,25.0,25.0,25.0,25.0,25.0,25.0,24.0,9.617,0.0,0.0,1.0,1780984946540046804
1780984946649491296,-4.325190361669776e-6,57.28970240695025,103.1325738443345,-0.0002994408114882579,-0.0028724414900784313,0.00005825395299280447,-0.0063975394646653225,0.0038081381722842025,0.0037395547915607865,-0.05778423317069965,-0.009989591348473398,0.013130379264524674,0.1009578908017639,5.93412480914963,2.7766632839738317,0.3665965286986814,0.3190052522314223,0.11931299997894018,25.0,25.0,25.0,25.0,25.0,25.0,24.0,9.617,0.0,0.0,1.0,1780984946540046804
1780984946749329684,0.000022117366461037017,57.28968690319845,103.13255963981362,-0.00006312090304190817,-0.0028323190005746916,4.370798396559989e-6,0.0013367538789408229,-0.0005377464344355652,-0.00032026127882169914,0.011472444750316365,0.001846234866565692,-0.002590398594643525,0.09954363722615076,5.9381334939305965,2.779232408753608,0.3669724898923052,0.31839246223581946,0.11941939548070175,25.0,25.0,25.0,25.0,25.0,25.0,24.0,9.622,0.0,0.0,1.0,1780984946734681429
1780984946849695986,0.000019018422014941937,57.28968739881878,103.1325581301954,-0.00008589371323951618,-0.0028355845743707124,9.72740995412891e-6,0.0014235001055115776,-0.0003925637495281553,-0.00025698692691826427,0.012024951682267825,0.00199767238766978,-0.0027064311194893572,0.10118551764295804,5.932999793909087,2.7757165398662877,0.3666330864319352,0.319468436401471,0.119330395924052,25.0,25.0,25.0,25.0,25.0,25.0,24.0,9.615,0.0,0.0,1.0,1780984946815449614
1780984946949459637,0.000019018422014941937,57.28968739881878,103.1325581301954,-0.00008589371323951618,-0.0028355845743707124,9.72740995412891e-6,0.0014235001055115776,-0.0003925637495281553,-0.00025698692691826427,0.012024951682267825,0.00199767238766978,-0.0027064311194893572,0.10118551764295804,5.932999793909087,2.7757165398662877,0.3666330864319352,0.319468436401471,0.119330395924052,25.0,25.0,25.0,25.0,25.0,25.0,24.0,9.615,0.0,0.0,1.0,1780984946815449614
1780984947049060336,0.000015365986944278486,57.289696608570615,103.13256694155888,-0.00012876183275918116,-0.0028432074004946404,0.00001893143036064182,-0.0012945725516056248,0.000873960528392888,0.001032927847557049,-0.012230710940884968,-0.0021821709311310605,0.002766031326301986,0.10144297148299782,5.932246592485223,2.7754900487244987,0.3664678285265618,0.3192590210019971,0.11927486668925408,25.0,25.0,25.0,25.0,25.0,25.0,24.0,9.614,0.0,0.0,1.0,1780984947027612118
1780984947149836889,-2.42266700555931e-6,57.28971093162287,103.13257915051594,-0.0002949332556703804,-0.002871083803073402,0.00005561357396493351,-0.004727640829051815,0.0027035635354795036,0.0027270309899995516,-0.042694033770715616,-0.007395087229054108,0.00971972865161425,0.10175212194126929,5.9322251500707965,2.7752728855013133,0.3666080670123077,0.31954649843706273,0.11932691395896482,25.0,25.0,25.0,25.0,25.0,25.0,24.0,9.615,0.0,0.0,1.0,1780984947086912935
1780984947248759025,-2.42266700555931e-6,57.28971093162287,103.13257915051594,-0.0002949332556703804,-0.002871083803073402,0.00005561357396493351,-0.004727640829051815,0.0027035635354795036,0.0027270309899995516,-0.042694033770715616,-0.007395087229054108,0.00971972865161425,0.10175212194126929,5.9322251500707965,2.7752728855013133,0.3666080670123077,0.31954649843706273,0.11932691395896482,25.0,25.0,25.0,25.0,25.0,25.0,24.0,9.615,0.0,0.0,1.0,1780984947086912935
1780984947350685413,9.904034431019856e-6,57.28969389017523,103.13255963392264,-0.00015998050399929916,-0.0028469871077365827,0.00002719865440874486,0.0016360246656033186,-4.10017510174469e-6,-0.0004990771896292056,0.01467038734276284,0.002605893193693495,-0.003215137410456976,0.10320432016935252,5.932673506004819,2.7759805469980066,0.36659881038662,0.31889291545625464,0.11935242918971468,25.0,25.0,25.0,25.0,25.0,25.0,24.0,9.617,0.0,0.0,1.0,1780984947340925785
1780984947449460918,9.904034431019856e-6,57.28969389017523,103.13255963392264,-0.00015998050399929916,-0.0028469871077365827,0.00002719865440874486,0.0016360246656033186,-4.10017510174469e-6,-0.0004990771896292056,0.01467038734276284,0.002605893193693495,-0.003215137410456976,0.10320432016935252,5.932673506004819,2.7759805469980066,0.36659881038662,0.31889291545625464,0.11935242918971468,25.0,25.0,25.0,25.0,25.0,25.0,24.0,9.617,0.0,0.0,1.0,1780984947340925785
1780984947548759830,9.904034431019856e-6,57.28969389017523,103.13255963392264,-0.00015998050399929916,-0.0028469871077365827,0.00002719865440874486,0.0016360246656033186,-4.10017510174469e-6,-0.0004990771896292056,0.01467038734276284,0.002605893193693495,-0.003215137410456976,0.10320432016935252,5.932673506004819,2.7759805469980066,0.36659881038662,0.31889291545625464,0.11935242918971468,25.0,25.0,25.0,25.0,25.0,25.0,24.0,9.617,0.0,0.0,1.0,1780984947340925785
1780984947649724102,0.000014022591673172156,57.28969041814399,103.13256126566748,-0.00013111304629667537,-0.0028428754987039244,0.000020055578690125665,-0.0004145000275488597,0.0005474904068750338,0.0007198399292790917,-0.004521329314443031,-0.000880225800239311,0.001031149495282435,0.1010444772956559,5.933328705773068,2.775946028441337,0.3666657258681939,0.3193870589228353,0.11933959868181288,25.0,25.0,25.0,25.0,25.0,25.0,24.0,9.616,0.0,0.0,1.0,1780984947633097462
1780984947749131827,0.000014022591673172156,57.28969041814399,103.13256126566748,-0.00013111304629667537,-0.0028428754987039244,0.000020055578690125665,-0.0004145000275488597,0.0005474904068750338,0.0007198399292790917,-0.004521329314443031,-0.000880225800239311,0.001031149495282435,0.1010444772956559,5.933328705773068,2.775946028441337,0.3666657258681939,0.3193870589228353,0.11933959868181288,25.0,25.0,25.0,25.0,25.0,25.0,24.0,9.616,0.0,0.0,1.0,1780984947633097462
1780984947848801836,-9.022219087632982e-6,57.28970581179357,103.13257573890006,-0.00033957899411507866,-0.0028794939862159534,0.0000676715496970884,-0.006564500234426269,0.003833987727725138,0.0037932232087717695,-0.05924212127884907,-0.01021984916935995,0.013470436687344768,0.10058878080786451,5.934501001601526,2.776726863380262,0.3667177121097334,0.3191624594746877,0.11935229710385784,25.0,25.0,25.0,25.0,25.0,25.0,24.0,9.617,0.0,0.0,1.0,1780984947845134820
1780984947948889530,0.000013228346609910298,57.289691698955906,103.1325608761812,-0.0001359562806070101,-0.002843972385143264,0.000021137686624601263,0.0015580193407405535,-0.00011836804976230046,-0.00047310670265201306,0.013800669269696616,0.0024330654441977423,-0.0030458704090942017,0.1028326021145991,5.932341607999335,2.7756916523651696,0.366567569564408,0.31905261314815636,0.11933276369855993,25.0,25.0,25.0,25.0,25.0,25.0,24.0,9.616,0.0,0.0,1.0,1780984947905289964
1780984948048911900,0.000013228346609910298,57.289691698955906,103.1325608761812,-0.0001359562806070101,-0.002843972385143264,0.000021137686624601263,0.0015580193407405535,-0.00011836804976230046,-0.00047310670265201306,0.013800669269696616,0.0024330654441977423,-0.0030458704090942017,0.1028326021145991,5.932341607999335,2.7756916523651696,0.366567569564408,0.31905261314815636,0.11933276369855993,25.0,25.0,25.0,25.0,25.0,25.0,24.0,9.616,0.0,0.0,1.0,1780984947905289964
1780984948149642811,0.000016619132004515427,57.28968857563289,103.1325595268742,-0.00010893404898235012,-0.0028392884205707936,0.000014355490912923125,0.0014726057299579824,-0.00017304340295593444,-0.0003881684422554861,0.012928928181892145,0.0022339290309383486,-0.002853039200955399,0.10226472699999048,5.932530919995348,2.7757351810249187,0.3665515925854986,0.3191396829009144,0.11931573481738544,25.0,25.0,25.0,25.0,25.0,25.0,24.0,9.616,0.0,0.0,1.0,1780984948139718146
1780984948248963050,0.00001573345915043638,57.2896908717991,103.1325627102026,-0.00012231840645990878,-0.002841821755058701,0.000016721820270625893,0.0014747722315804994,-0.000015177747684035757,-0.0006129446366296273,0.013714003373634213,0.0024379738834779084,-0.0029643939150130454,0.10345173630822328,5.934646299788762,2.778327219591154,0.3662988596349464,0.31713774176384124,0.11926095780642708,25.0,25.0,25.0,25.0,25.0,25.0,24.0,9.619,0.0,0.0,1.0,1780984948159383831
1780984948349557880,0.00001303343929325824,57.2896908310614,103.1325611000713,-0.00014068696594188475,-0.0028446534827094305,0.000021492910916131804,0.0015624067132910006,-0.00008382068958551915,-0.0004829737406419385,0.013941869938655429,0.0024575612639722156,-0.003055174522816934,0.10276460751698184,5.9324247065598845,2.7757457539142965,0.366575782672124,0.3190389978094829,0.119334852669697,25.0,25.0,25.0,25.0,25.0,25.0,24.0,9.616,0.0,0.0,1.0,1780984948337678848
1780984948451628810,0.000017410610585217848,57.28969066540949,103.13256278052437,-0.00010873209167532188,-0.002839905410093896,0.00001375784018232298,0.0014628795367333492,-0.00034979784871136,-0.0004277951857575933,0.012722236480250495,0.002183647447657338,-0.0028346191879060284,0.10218117413804464,5.931664500358002,2.7750582374058688,0.36653780637732386,0.31944084277564716,0.11930854621790528,25.0,25.0,25.0,25.0,25.0,25.0,24.0,9.614,0.0,0.0,1.0,1780984948417273175
1780984948548893143,0.000017410610585217848,57.28969066540949,103.13256278052437,-0.00010873209167532188,-0.002839905410093896,0.00001375784018232298,0.0014628795367333492,-0.00034979784871136,-0.0004277951857575933,0.012722236480250495,0.002183647447657338,-0.0028346191879060284,0.10218117413804464,5.931664500358002,2.7750582374058688,0.36653780637732386,0.31944084277564716,0.11930854621790528,25.0,25.0,25.0,25.0,25.0,25.0,24.0,9.614,0.0,0.0,1.0,1780984948417273175
1780984948649432337,-3.697193579812006e-6,57.28970233786424,103.13257367971512,-0.00029644466398433354,-0.0028720220536391796,0.00005694677306174878,-0.005555936943731973,0.0032873634090190744,0.0032734011335629194,-0.050143228675530685,-0.008681894855782298,0.011425111042587229,0.10034900560933088,5.9351036199842175,2.7771414818729263,0.3667615972281879,0.3190237626302617,0.11936340368272992,25.0,25.0,25.0,25.0,25.0,25.0,24.0,9.618,0.0,0.0,1.0,1780984948642633516
1780984948749595016,-8.896079517473226e-6,57.28971038360183,103.13258197359067,-0.0003483958002242115,-0.002882138029802635,0.00006904069920953976,-0.00791726872901434,0.004580122847990458,0.004408399554038963,-0.07126691062973847,-0.012252298013015623,0.01617672823763863,0.10117541746811372,5.93290166931564,2.775890641212147,0.36657252690592534,0.3191805334258339,0.11930730388862788,25.0,25.0,25.0,25.0,25.0,25.0,24.0,9.615,0.0,0.0,1.0,1780984948681831323
1780984948848902582,-8.896079517473226e-6,57.28971038360183,103.13258197359067,-0.0003483958002242115,-0.002882138029802635,0.00006904069920953976,-0.00791726872901434,0.004580122847990458,0.004408399554038963,-0.07126691062973847,-0.012252298013015623,0.01617672823763863,0.10117541746811372,5.93290166931564,2.775890641212147,0.36657252690592534,0.3191805334258339,0.11930730388862788,25.0,25.0,25.0,25.0,25.0,25.0,24.0,9.615,0.0,0.0,1.0,1780984948681831323
1780984948949724703,2.144488510641169e-6,57.28970678043414,103.13257529404244,-0.00025066504441629384,-0.002863532944333709,0.00004607572289366114,-0.004074759638671812,0.002384527689362789,0.002432170504299084,-0.036954740867846315,-0.006414280985515124,0.008403843963290119,0.10155473776722296,5.932252049427029,2.775296439489562,0.36665173482612073,0.3195370932891598,0.11933929446789328,25.0,25.0,25.0,25.0,25.0,25.0,24.0,9.615,0.0,0.0,1.0,1780984948938282178
1780984949048905921,2.144488510641169e-6,57.28970678043414,103.13257529404244,-0.00025066504441629384,-0.002863532944333709,0.00004607572289366114,-0.004074759638671812,0.002384527689362789,0.002432170504299084,-0.036954740867846315,-0.006414280985515124,0.008403843963290119,0.10155473776722296,5.932252049427029,2.775296439489562,0.36665173482612073,0.3195370932891598,0.11933929446789328,25.0,25.0,25.0,25.0,25.0,25.0,24.0,9.615,0.0,0.0,1.0,1780984948938282178
1780984949149336555,7.425316575032367e-6,57.289702543430515,103.13257415809304,-0.00020851786836026783,-0.0028571546164084666,0.000035946802649974674,-0.003085919105541265,0.0017170655856331553,0.0018995960801523088,-0.028028924180819485,-0.004945610276156846,0.006376736133029581,0.10003482507459184,5.936147925272891,2.7780001535784833,0.366822416101889,0.3186375970653059,0.11937604688841158,25.0,25.0,25.0,25.0,25.0,25.0,24.0,9.619,0.0,0.0,1.0,1780984949131507010
1780984949249658033,-4.061844054545781e-6,57.289694249335085,103.13256617612636,-0.00028272629183532144,-0.002870484300858897,0.00005562085357021131,0.0016030536658330034,-0.0035742591928531677,-0.002989240259833511,0.017856434860279262,0.002798724260602261,-0.003871126854542327,0.0919432471808406,5.950970638603764,2.787812364737462,0.36928591349881185,0.3175728758077705,0.12007912253091424,25.0,25.0,25.0,25.0,25.0,25.0,24.0,9.638,0.0,0.0,1.0,1780984949211262482
1780984949349179057,-4.061844054545781e-6,57.289694249335085,103.13256617612636,-0.00028272629183532144,-0.002870484300858897,0.00005562085357021131,0.0016030536658330034,-0.0035742591928531677,-0.002989240259833511,0.017856434860279262,0.002798724260602261,-0.003871126854542327,0.0919432471808406,5.950970638603764,2.787812364737462,0.36928591349881185,0.3175728758077705,0.12007912253091424,25.0,25.0,25.0,25.0,25.0,25.0,24.0,9.638,0.0,0.0,1.0,1780984949211262482
1780984949449392128,-0.000011104425170367769,57.28969174677906,103.13256219662908,-0.000336393028204341,-0.002875062899307318,0.00006709441900408154,0.001369993941249667,-0.005665406973881248,-0.005228344982178513,0.018881512880332605,0.0041242891296792384,-0.004173479369333939,0.09064959325268591,5.954328499572795,2.7917129927425854,0.36957626992168535,0.31583944846869516,0.1201195909808372,25.0,25.0,25.0,25.0,25.0,25.0,24.0,9.642,0.0,0.0,1.0,1780984949441610676
1780984949549537577,0.000016429974265443008,57.28969079752881,103.13255962990624,-0.00010757516816971454,-0.0028375721632568395,0.000014627700367278996,0.001441228147409668,-0.0002915000732640872,-0.0005999922694287905,0.013340747126554852,0.0022422003921576767,-0.0029330154384273363,0.097484827172191,5.94355225550966,2.783004005778992,0.3674277226710289,0.31723844697227904,0.1195388680926237,25.0,25.0,25.0,25.0,25.0,25.0,24.0,9.628,0.0,0.0,1.0,1780984949480760901
1780984949649048299,0.000016429974265443008,57.28969079752881,103.13255962990624,-0.00010757516816971454,-0.0028375721632568395,0.000014627700367278996,0.001441228147409668,-0.0002915000732640872,-0.0005999922694287905,0.013340747126554852,0.0022422003921576767,-0.0029330154384273363,0.097484827172191,5.94355225550966,2.783004005778992,0.3674277226710289,0.31723844697227904,0.1195388680926237,25.0,25.0,25.0,25.0,25.0,25.0,24.0,9.628,0.0,0.0,1.0,1780984949480760901
1780984949748805190,0.00001591931651199506,57.28968978309069,103.13256048024586,-0.00011670721656007722,-0.00284042246124395,0.00001590543891188391,0.0014928008551935263,-0.0002261864840946027,-0.0004061542641663612,0.013105205000553037,0.0022530523652903737,-0.0028924835006220594,0.10204639519082616,5.932428974134652,2.7756425302039407,0.366578222896167,0.31919348612489373,0.11932223079505436,25.0,25.0,25.0,25.0,25.0,25.0,24.0,9.615,0.0,0.0,1.0,1780984949745124689
1780984949850959820,0.00001591931651199506,57.28968978309069,103.13256048024586,-0.00011670721656007722,-0.00284042246124395,0.00001590543891188391,0.0014928008551935263,-0.0002261864840946027,-0.0004061542641663612,0.013105205000553037,0.0022530523652903737,-0.0028924835006220594,0.10204639519082616,5.932428974134652,2.7756425302039407,0.366578222896167,0.31919348612489373,0.11932223079505436,25.0,25.0,25.0,25.0,25.0,25.0,24.0,9.615,0.0,0.0,1.0,1780984949745124689
1780984949949764882,0.00001591931651199506,57.28968978309069,103.13256048024586,-0.00011670721656007722,-0.00284042246124395,0.00001590543891188391,0.0014928008551935263,-0.0002261864840946027,-0.0004061542641663612,0.013105205000553037,0.0022530523652903737,-0.0028924835006220594,0.10204639519082616,5.932428974134652,2.7756425302039407,0.366578222896167,0.31919348612489373,0.11932223079505436,25.0,25.0,25.0,25.0,25.0,25.0,24.0,9.615,0.0,0.0,1.0,1780984949745124689
1780984950049150537,0.000017875712130358278,57.28968748064754,103.13255894648972,-0.0000995071362226232,-0.002836268449208655,0.0000117363419812194,0.001450748675959932,-0.00029774441855045126,-0.0003104589149576609,0.012448494041526072,0.002067773154301046,-0.0027753079029833976,0.10183592806703132,5.931722121197731,2.7750555858261,0.3665727239814788,0.3194935024371641,0.11931523886934188,25.0,25.0,25.0,25.0,25.0,25.0,24.0,9.614,0.0,0.0,1.0,1780984950038231585
1780984950149618766,-1.1447559257789403e-6,57.28970057158063,103.13257205164292,-0.00027513646281472994,-0.0028670715253791847,0.00005133838388675718,-0.004609219249969941,0.0028261327439755915,0.0027992097599816084,-0.041701447586365584,-0.007251274584127996,0.009520301283604229,0.10066796443581916,5.93376812285397,2.7762209678504557,0.3667357625823466,0.3193139229441368,0.11935933350344186,25.0,25.0,25.0,25.0,25.0,25.0,24.0,9.616,0.0,0.0,1.0,1780984950059590830
1780984950248844405,-1.1447559257789403e-6,57.28970057158063,103.13257205164292,-0.00027513646281472994,-0.0028670715253791847,0.00005133838388675718,-0.004609219249969941,0.0028261327439755915,0.0027992097599816084,-0.041701447586365584,-0.007251274584127996,0.009520301283604229,0.10066796443581916,5.93376812285397,2.7762209678504557,0.3667357625823466,0.3193139229441368,0.11935933350344186,25.0,25.0,25.0,25.0,25.0,25.0,24.0,9.616,0.0,0.0,1.0,1780984950059590830
1780984950349680249,0.000017838019814042284,57.28969609811164,103.13256635754956,-0.00010681093019752056,-0.0028396720109686163,0.000013789690190528598,0.001401274840409786,-0.0005788573940687785,-0.0008510388839197703,0.013154382511258578,0.002282610199726327,-0.002942803806058953,0.09729699971604489,5.9439087242460245,2.7832589026631056,0.3675420508087801,0.31719475253779206,0.11957027785148816,25.0,25.0,25.0,25.0,25.0,25.0,24.0,9.629,0.0,0.0,1.0,1780984950331670324
1780984950449710993,0.000017838019814042284,57.28969609811164,103.13256635754956,-0.00010681093019752056,-0.0028396720109686163,0.000013789690190528598,0.001401274840409786,-0.0005788573940687785,-0.0008510388839197703,0.013154382511258578,0.002282610199726327,-0.002942803806058953,0.09729699971604489,5.9439087242460245,2.7832589026631056,0.3675420508087801,0.31719475253779206,0.11957027785148816,25.0,25.0,25.0,25.0,25.0,25.0,24.0,9.629,0.0,0.0,1.0,1780984950331670324
1780984950548878181,6.342924588037102e-6,57.28968736640457,103.13255778153729,-0.00019193180523305195,-0.0028505678844886317,0.00003287713194924473,0.0016998034782206542,-0.000230012289847844,-0.000697509709927425,0.015282345544399866,0.002688389688767812,-0.0034214463112322256,0.10317426869067448,5.934791287455587,2.7784445835099345,0.36598713925861,0.3166959981152523,0.1191403054124652,25.0,25.0,25.0,25.0,25.0,25.0,24.0,9.618,0.0,0.0,1.0,1780984950535922473
1780984950649683562,9.0119930573712e-6,57.289690140360904,103.13256454133963,-0.00018342579618717356,-0.0028520783680461258,0.000029910457259379568,0.0015698272731233774,-0.002092135539100222,-0.001486364399034031,0.013656003334591668,0.002434230758876037,-0.00349608286428374,0.09390067229564764,5.9464289198741165,2.784296800348506,0.3680585329875818,0.3177060007351455,0.1196763418938932,25.0,25.0,25.0,25.0,25.0,25.0,24.0,9.63,0.0,0.0,1.0,1780984950597331299
1780984950749123597,9.0119930573712e-6,57.289690140360904,103.13256454133963,-0.00018342579618717356,-0.0028520783680461258,0.000029910457259379568,0.0015698272731233774,-0.002092135539100222,-0.001486364399034031,0.013656003334591668,0.002434230758876037,-0.00349608286428374,0.09390067229564764,5.9464289198741165,2.784296800348506,0.3680585329875818,0.3177060007351455,0.1196763418938932,25.0,25.0,25.0,25.0,25.0,25.0,24.0,9.63,0.0,0.0,1.0,1780984950597331299
1780984950848888226,0.0000222705794763874,57.28969081122849,103.13256065942367,-0.00006552271114122009,-0.002831282283682193,4.05003540236585e-6,0.0013432363879577922,-0.0005458491965210304,-0.00030319952506601035,0.01136445363388038,0.0018494983361228628,-0.002562154136774799,0.10139730358357836,5.932174179839582,2.7752575639418944,0.3666632691123644,0.3195377810915877,0.11934131854499418,25.0,25.0,25.0,25.0,25.0,25.0,24.0,9.614,0.0,0.0,1.0,1780984950841330703
1780984950949211475,0.00001615752185860356,57.2896914342296,103.13255857247836,-0.00010843996358425972,-0.002838393376893246,0.000015218514217753163,0.0014941640697500823,-0.00036368382369167575,-0.0003063837466425157,0.01275650068833802,0.002143663641557925,-0.002857044880278582,0.10090135354587627,5.9324096522172844,2.7753110158574117,0.3666887713295807,0.31960745527903334,0.11934708902558064,25.0,25.0,25.0,25.0,25.0,25.0,24.0,9.614,0.0,0.0,1.0,1780984950858033838
1780984951049663975,0.00001244961174694116,57.28969656833001,103.13256400595372,-0.0001482922803623058,-0.002845184878984018,0.000023441489274427253,0.0015073723410760503,-0.001024853811941618,-0.0011576416355470627,0.013418059019828676,0.0025200062191375965,-0.00326219446208849,0.09524266235043076,5.946511599904214,2.784926110606732,0.3677119239631196,0.31687849373958016,0.11958606730731013,25.0,25.0,25.0,25.0,25.0,25.0,24.0,9.631,0.0,0.0,1.0,1780984951036316266
1780984951149206197,7.834055533458457e-6,57.289693830506906,103.13256529076035,-0.00019070965588352317,-0.0028537617715667417,0.00003231876984818127,0.0016649024967040986,-0.000387950256449572,-0.0009068811408755456,0.01520989457847768,0.0027830628113616708,-0.0034196070029707294,0.10335348678592358,5.934297286754132,2.77809273994856,0.3658513585930906,0.3165996514215059,0.11909194598197834,25.0,25.0,25.0,25.0,25.0,25.0,24.0,9.617,0.0,0.0,1.0,1780984951117661725
1780984951249229703,7.834055533458457e-6,57.289693830506906,103.13256529076035,-0.00019070965588352317,-0.0028537617715667417,0.00003231876984818127,0.0016649024967040986,-0.000387950256449572,-0.0009068811408755456,0.01520989457847768,0.0027830628113616708,-0.0034196070029707294,0.10335348678592358,5.934297286754132,2.77809273994856,0.3658513585930906,0.3165996514215059,0.11909194598197834,25.0,25.0,25.0,25.0,25.0,25.0,24.0,9.617,0.0,0.0,1.0,1780984951117661725
1780984951349191593,0.00001230544657580117,57.289694320086014,103.13256563135418,-0.0001523449331507184,-0.002847821391531621,0.00002448909611895625,-0.00021816279768498416,0.0003753177059848744,0.0005245889672217015,-0.0026548296190844235,-0.000515747819132437,0.0006107873379530825,0.10078187404765798,5.9328500188823465,2.775604486449565,0.3667181676895471,0.3195086954940077,0.119355652070598,25.0,25.0,25.0,25.0,25.0,25.0,24.0,9.615,0.0,0.0,1.0,1780984951335570430
1780984951449297708,7.216921098734929e-6,57.289703533739065,103.13257308831638,-0.0002079307396607044,-0.002856361827254111,0.000035840765361127356,-0.0020431281158036245,0.00125745845451341,0.0013602039348977156,-0.0187636183870744,-0.003291440921266716,0.004281825877207469,0.10146299087428082,5.931831454204447,2.7750199583554,0.36666516589436504,0.3196133413132076,0.11934334233657688,25.0,25.0,25.0,25.0,25.0,25.0,24.0,9.614,0.0,0.0,1.0,1780984951395300107
1780984951548875684,7.216921098734929e-6,57.289703533739065,103.13257308831638,-0.0002079307396607044,-0.002856361827254111,0.000035840765361127356,-0.0020431281158036245,0.00125745845451341,0.0013602039348977156,-0.0187636183870744,-0.003291440921266716,0.004281825877207469,0.10146299087428082,5.931831454204447,2.7750199583554,0.36666516589436504,0.3196133413132076,0.11934334233657688,25.0,25.0,25.0,25.0,25.0,25.0,24.0,9.614,0.0,0.0,1.0,1780984951395300107
1780984951649505907,1.9895991287516954e-6,57.28968714044563,103.1325575283348,-0.00022684642031948037,-0.002854132904093185,0.00004135913856666716,-0.0026335549045880236,0.001987435313729162,0.002109567418821542,-0.02449119977218006,-0.004451714328927969,0.0056100858602006675,0.10001940885583337,5.934961563414108,2.777070104145732,0.3667862642597806,0.31905180130986643,0.1193693930033385,25.0,25.0,25.0,25.0,25.0,25.0,24.0,9.617,0.0,0.0,1.0,1780984951626128038
1780984951749298190,0.000018947996571536506,57.28968754458694,103.13255724750522,-0.00008371136346679994,-0.002832314778350311,9.26661233191057e-6,0.0013849506996661898,-0.00019774913301577704,-0.0004626996221312331,0.012698617933764207,0.00206213127575825,-0.002784493976498895,0.0976254273444522,5.943199756046351,2.782906176775433,0.36739035155503086,0.31712360524711897,0.11952881596943105,25.0,25.0,25.0,25.0,25.0,25.0,24.0,9.628,0.0,0.0,1.0,1780984951650548281
1780984951849440410,8.440857272568096e-6,57.28968913426441,103.13256198943422,-0.0001796729984771158,-0.0028509336289803534,0.000030361302228051385,0.001650996103210201,-0.00025999597030410297,-0.0008209311842890521,0.014903346448779008,0.002709653743523095,-0.0033745485932413295,0.10344073165078396,5.933976082215152,2.77788989478897,0.36576196344174366,0.3165138837318905,0.11905872587754796,25.0,25.0,25.0,25.0,25.0,25.0,24.0,9.617,0.0,0.0,1.0,1780984951832402398
1780984951948911182,0.000016982363326327565,57.28969350069474,103.1325623137272,-0.00011052466713189926,-0.0028386533261131924,0.000014309443135210688,0.0014563711346264692,-0.0002518655848977685,-0.0005024419670890574,0.013066750588372991,0.002251735356335809,-0.0028726594772385604,0.10213658787949614,5.93257609975817,2.7761226025725145,0.36650671394228573,0.3185855332164608,0.11931079393794276,25.0,25.0,25.0,25.0,25.0,25.0,24.0,9.615,0.0,0.0,1.0,1780984951911125730
1780984952049670730,0.000016982363326327565,57.28969350069474,103.1325623137272,-0.00011052466713189926,-0.0028386533261131924,0.000014309443135210688,0.0014563711346264692,-0.0002518655848977685,-0.0005024419670890574,0.013066750588372991,0.002251735356335809,-0.0028726594772385604,0.10213658787949614,5.93257609975817,2.7761226025725145,0.36650671394228573,0.3185855332164608,0.11931079393794276,25.0,25.0,25.0,25.0,25.0,25.0,24.0,9.615,0.0,0.0,1.0,1780984951911125730
1780984952149417493,0.000017450145367315052,57.28969108823595,103.1325613999929,-0.00010618529137224652,-0.002838659924518015,0.00001339665558897782,0.001468761384408256,-0.0005302945804883771,-0.00033416907394209566,0.012514506467106489,0.002059929373294529,-0.002802585030647331,0.10065153129198232,5.932941582985914,2.775665305386797,0.3667265238692615,0.3194893666359363,0.1193571442581309,25.0,25.0,25.0,25.0,25.0,25.0,24.0,9.615,0.0,0.0,1.0,1780984952146834540
1780984952249342725,0.000019098443256553897,57.2896891870799,103.13256031020262,-0.000090817771758595,-0.002836271576243878,0.000010071367222197296,0.0013377249535339564,-0.00048364001632071927,-0.00024308656261793133,0.011270892382350886,0.0018321840026117176,-0.002531284715964413,0.10055943976041146,5.9333269151338985,2.775932941156813,0.3667421319719488,0.3193982995486447,0.11936096518562755,25.0,25.0,25.0,25.0,25.0,25.0,24.0,9.615,0.0,0.0,1.0,1780984952167529657
1780984952349551116,0.00001695525825122977,57.28968987142805,103.13256162377436,-0.0001102873663434353,-0.002839831130054148,0.000014501763591221666,0.0004671214141321693,0.000020912749616793395,0.000206304225642156,0.0035051973539328304,0.0005086119815743993,-0.000767614505159109,0.10054617653589049,5.933371683219399,2.7759635904165862,0.3667501559861285,0.31938774551980403,0.11936332205201584,25.0,25.0,25.0,25.0,25.0,25.0,24.0,9.615,0.0,0.0,1.0,1780984952338803001
1780984952449045550,0.000011946900907941756,57.28969472918468,103.13256498544494,-0.00015846827565676875,-0.0028470058852387856,0.00002437731229271243,0.0015252438928596362,-0.0009034589848119266,-0.0011241708049043331,0.013844555880653588,0.002554515192727545,-0.003270358034200462,0.09528575445113335,5.946012737696786,2.7845564077648937,0.36770539096335536,0.31699305668684885,0.11958868308061237,25.0,25.0,25.0,25.0,25.0,25.0,24.0,9.63,0.0,0.0,1.0,1780984952417595704
1780984952549231753,0.000011946900907941756,57.28969472918468,103.13256498544494,-0.00015846827565676875,-0.0028470058852387856,0.00002437731229271243,0.0015252438928596362,-0.0009034589848119266,-0.0011241708049043331,0.013844555880653588,0.002554515192727545,-0.003270358034200462,0.09528575445113335,5.946012737696786,2.7845564077648937,0.36770539096335536,0.31699305668684885,0.11958868308061237,25.0,25.0,25.0,25.0,25.0,25.0,24.0,9.63,0.0,0.0,1.0,1780984952417595704
1780984952649685107,0.00001016540691754533,57.2896938025354,103.13256547771115,-0.0001717677848880964,-0.002850668920634511,0.00002799048683364973,0.0016128382462456414,-0.00019318819905542783,-0.0007870407159426206,0.014974055945376076,0.002692602425401511,-0.003281693655372053,0.10324453617158975,5.935049290251421,2.778798283622324,0.3661810353613184,0.3166246404543128,0.11921598983784328,25.0,25.0,25.0,25.0,25.0,25.0,24.0,9.619,0.0,0.0,1.0,1780984952636318299
1780984952750078404,0.0000175834441716463,57.28969076338464,103.13256102890657,-0.00010369810390463707,-0.00283839557146023,0.00001309476750196899,0.0014648487799729265,-0.000513310054709667,-0.0003256842396786522,0.012456502272408384,0.0020569676610291444,-0.002794893065206,0.10059459431255816,5.932927780166343,2.775656582636424,0.3667388667802845,0.3194927256162936,0.11936073941846506,25.0,25.0,25.0,25.0,25.0,25.0,24.0,9.615,0.0,0.0,1.0,1780984952675850550
1780984952849571977,0.0000175834441716463,57.28969076338464,103.13256102890657,-0.00010369810390463707,-0.00283839557146023,0.00001309476750196899,0.0014648487799729265,-0.000513310054709667,-0.0003256842396786522,0.012456502272408384,0.0020569676610291444,-0.002794893065206,0.10059459431255816,5.932927780166343,2.775656582636424,0.3667388667802845,0.3194927256162936,0.11936073941846506,25.0,25.0,25.0,25.0,25.0,25.0,24.0,9.615,0.0,0.0,1.0,1780984952675850550
1780984952949744239,0.0000107039926342988,57.28969080200495,103.13256137137738,-0.00016087157346676392,-0.0028476907089025672,0.00002593214862479937,0.0015942147948190108,-0.00014128173649305463,-0.0006855623594536184,0.014677344962925084,0.0026098353485182447,-0.003219768688716594,0.10296616609510292,5.935365403642656,2.7789787470516547,0.3662664455309603,0.3166959533289378,0.11924312366384617,25.0,25.0,25.0,25.0,25.0,25.0,24.0,9.62,0.0,0.0,1.0,1780984952933785487
1780984953049938872,0.0000107039926342988,57.28969080200495,103.13256137137738,-0.00016087157346676392,-0.0028476907089025672,0.00002593214862479937,0.0015942147948190108,-0.00014128173649305463,-0.0006855623594536184,0.014677344962925084,0.0026098353485182447,-0.003219768688716594,0.10296616609510292,5.935365403642656,2.7789787470516547,0.3662664455309603,0.3166959533289378,0.11924312366384617,25.0,25.0,25.0,25.0,25.0,25.0,24.0,9.62,0.0,0.0,1.0,1780984952933785487
1780984953149836785,0.00001648506146249897,57.289694009246915,103.1325633367766,-0.00011241723692899393,-0.0028401689484573514,0.000015631039699449372,0.00144230222571334,-0.00034691744470839394,-0.0006905519725616946,0.013485725481332743,0.002317456705152728,-0.002960189573345084,0.09716055447902608,5.94344326489464,2.782928167625294,0.36749561854121704,0.31726060073934764,0.11955936974495816,25.0,25.0,25.0,25.0,25.0,25.0,24.0,9.628,0.0,0.0,1.0,1780984953138704676
1780984953249917790,0.000017318323149304346,57.28969145822067,103.13255879136406,-0.0000982663041858156,-0.002837002969032044,0.000013168286654415132,0.0014671432801734777,-0.0004455982610493594,-0.0002887309925081768,0.01240683707930077,0.002064109454204453,-0.002799369116359529,0.10059075356652145,5.932726119218085,2.775528588185484,0.3667454034728037,0.3195326699864898,0.11936293033985396,25.0,25.0,25.0,25.0,25.0,25.0,24.0,9.614,0.0,0.0,1.0,1780984953196139334
1780984953349266905,0.000017318323149304346,57.28969145822067,103.13255879136406,-0.0000982663041858156,-0.002837002969032044,0.000013168286654415132,0.0014671432801734777,-0.0004455982610493594,-0.0002887309925081768,0.01240683707930077,0.002064109454204453,-0.002799369116359529,0.10059075356652145,5.932726119218085,2.775528588185484,0.3667454034728037,0.3195326699864898,0.11936293033985396,25.0,25.0,25.0,25.0,25.0,25.0,24.0,9.614,0.0,0.0,1.0,1780984953196139334
1780984953451852621,-0.00001452008867942267,57.28971180011662,103.1325837415875,-0.0003969588208413749,-0.0028905304941845653,0.00008034688767074421,-0.009540108405499566,0.0054889096742147215,0.0052530874944730615,-0.08572433046446655,-0.014723415984119095,0.019466152339406184,0.10051590845648646,5.933503097501102,2.7762653476315364,0.3667099357972519,0.31910075253117215,0.1193469214001238,25.0,25.0,25.0,25.0,25.0,25.0,24.0,9.615,0.0,0.0,1.0,1780984953442517934
1780984953548894150,-0.00001452008867942267,57.28971180011662,103.1325837415875,-0.0003969588208413749,-0.0028905304941845653,0.00008034688767074421,-0.009540108405499566,0.0054889096742147215,0.0052530874944730615,-0.08572433046446655,-0.014723415984119095,0.019466152339406184,0.10051590845648646,5.933503097501102,2.7762653476315364,0.3667099357972519,0.31910075253117215,0.1193469214001238,25.0,25.0,25.0,25.0,25.0,25.0,24.0,9.615,0.0,0.0,1.0,1780984953442517934
1780984953648945186,-2.1400170743798224e-6,57.28969433244234,103.13256396905578,-0.000266684169690239,-0.0028632941585943037,0.00005133663102564023,-0.004531097334012575,0.002899358686054735,0.002981626257033423,-0.04137729332352332,-0.007285839438111201,0.009413823823734024,0.0996950617185541,5.935456381000196,2.7774127385141285,0.36686610522847746,0.31893738805879485,0.1193919460523296,25.0,25.0,25.0,25.0,25.0,25.0,24.0,9.618,0.0,0.0,1.0,1780984953646215280
1780984953749254757,-1.3939688667031816e-6,57.28969253443146,103.13256531014068,-0.0002640255398857201,-0.002866037845436883,0.000050061892508022986,0.0015872901611891045,-0.003350333154158688,-0.0027249492367880596,0.017031121723048433,0.0026912327807163206,-0.003784552947207361,0.09168213888106728,5.950258134618213,2.787202020280904,0.36918340637384706,0.3176373185131706,0.12003908747865856,25.0,25.0,25.0,25.0,25.0,25.0,24.0,9.636,0.0,0.0,1.0,1780984953686520728
1780984953849683556,-0.00029207873623901613,56.781031427504374,103.13304879234866,-0.0041022895974322255,-0.01098201276917903,0.0007102330987988534,0.008694823337198197,13.883346793190864,-0.02612639539316128,0.06868346931195693,0.3674679115052465,-0.02041909552114254,1.0882298406447335,1.1982778645864,1.286266525403419,0.1766657340488331,2.0196906607022096,0.07433151800425647,25.0,25.0,25.0,25.0,25.0,25.0,24.0,5.843,0.0,0.0,1.0,1780984953827011449
1780984953953484045,0.00001045344628943035,57.289692762114285,103.13256418426874,-0.0001670078495558705,-0.002849566713309733,0.000027077405914394933,0.0016007999638480688,-0.0002733512065270961,-0.0008163679395651113,0.0147099576758341,0.002663815548313902,-0.0032695841594641262,0.10306592966426292,5.934578580471981,2.7783667045774494,0.3660679729706436,0.31664645291012045,0.11916902644880704,25.0,25.0,25.0,25.0,25.0,25.0,24.0,9.618,0.0,0.0,1.0,1780984953948691886
1780984954054670305,0.00001045344628943035,57.289692762114285,103.13256418426874,-0.0001670078495558705,-0.002849566713309733,0.000027077405914394933,0.0016007999638480688,-0.0002733512065270961,-0.0008163679395651113,0.0147099576758341,0.002663815548313902,-0.0032695841594641262,0.10306592966426292,5.934578580471981,2.7783667045774494,0.3660679729706436,0.31664645291012045,0.11916902644880704,25.0,25.0,25.0,25.0,25.0,25.0,24.0,9.618,0.0,0.0,1.0,1780984953948691886
1780984954154220714,0.00001045344628943035,57.289692762114285,103.13256418426874,-0.0001670078495558705,-0.002849566713309733,0.000027077405914394933,0.0016007999638480688,-0.0002733512065270961,-0.0008163679395651113,0.0147099576758341,0.002663815548313902,-0.0032695841594641262,0.10306592966426292,5.934578580471981,2.7783667045774494,0.3660679729706436,0.31664645291012045,0.11916902644880704,25.0,25.0,25.0,25.0,25.0,25.0,24.0,9.618,0.0,0.0,1.0,1780984953948691886
1780984954254281981,0.00001045344628943035,57.289692762114285,103.13256418426874,-0.0001670078495558705,-0.002849566713309733,0.000027077405914394933,0.0016007999638480688,-0.0002733512065270961,-0.0008163679395651113,0.0147099576758341,0.002663815548313902,-0.0032695841594641262,0.10306592966426292,5.934578580471981,2.7783667045774494,0.3660679729706436,0.31664645291012045,0.11916902644880704,25.0,25.0,25.0,25.0,25.0,25.0,24.0,9.618,0.0,0.0,1.0,1780984953948691886
1780984954353875172,4.8866852299009735e-6,57.2896925154351,103.13256228005795,-0.0002072011640530168,-0.0028559303235394804,0.00003726924139518523,0.001730841317850711,-0.0004436955556835262,-0.0009713833922939668,0.015322071019480668,0.0029111725290149335,-0.0035729887339780984,0.10278243828801065,5.934012304736845,2.7776979038306644,0.3655621916071377,0.31642147936279347,0.118971438339646,25.0,25.0,25.0,25.0,25.0,25.0,24.0,9.615,0.0,0.0,1.0,1780984954352250026
1780984954454309422,-1.782178744503382e-7,57.29156410878756,103.13282232087133,-0.0013430282356584318,-0.00017693248442418708,0.00004149907401419352,-0.0003988517884346549,0.1149079466209424,0.012183556638277023,-0.02925528858252974,-0.006571297432151859,0.0018504021958616129,0.14888081644203055,5.891476120420068,2.7242223587317795,0.3523193411058002,0.33480745637296744,0.11526856357744963,25.0,25.0,25.0,25.0,25.0,25.0,24.0,9.567,0.0,0.0,1.0,1780984954408075001
1780984954554351262,-1.782178744503382e-7,57.29156410878756,103.13282232087133,-0.0013430282356584318,-0.00017693248442418708,0.00004149907401419352,-0.0003988517884346549,0.1149079466209424,0.012183556638277023,-0.02925528858252974,-0.006571297432151859,0.0018504021958616129,0.14888081644203055,5.891476120420068,2.7242223587317795,0.3523193411058002,0.33480745637296744,0.11526856357744963,25.0,25.0,25.0,25.0,25.0,25.0,24.0,9.567,0.0,0.0,1.0,1780984954408075001
1780984954654381959,-4.616878373332653e-7,57.289703614321915,103.13257452319677,-0.0002704542510245157,-0.0028677675155027726,0.000051096296813645934,-0.004968637135161749,0.0029540663220346004,0.002941075626994047,-0.04493460093801772,-0.007777655462548555,0.010219470476073245,0.1002652394864642,5.933608029238634,2.7763343493516826,0.3667074023589093,0.31908484011676114,0.11934417446894029,25.0,25.0,25.0,25.0,25.0,25.0,24.0,9.615,0.0,0.0,1.0,1780984954646137843
1780984954753892168,2.4468285042915492e-6,57.28969332126447,103.13256814336918,-0.00024435361904309933,-0.002863036623585358,0.000043227283494215345,0.0016673102827325344,-0.002752098861182883,-0.00198434238928875,0.015465140126362948,0.0026462024006895057,-0.003793130548508099,0.09247493044581748,5.947406536100877,2.784836445735027,0.36849993587161545,0.3179552620979788,0.11981080720391146,25.0,25.0,25.0,25.0,25.0,25.0,24.0,9.631,0.0,0.0,1.0,1780984954664140995
1780984954853916930,-0.0001634870874156885,57.29422545459127,103.13276017072228,-0.0020116995779583756,-0.0009233497815885044,0.00031435025500730745,0.0042329896556815355,0.006971608307276959,0.0005036896065732045,0.04141130300929034,0.0046888777000487734,-0.007925982742301961,0.13835578414189104,5.927024160055406,2.757832524533337,0.35557966662743795,0.32241024134322344,0.11609796456413728,25.0,25.0,25.0,25.0,25.0,25.0,24.0,9.617,0.0,0.0,1.0,1780984954836399142
1780984954954074383,0.000016925228810812367,57.28969013839598,103.13255932186514,-0.00010424918952725705,-0.0028384354032790645,0.000014029024389009728,0.0014777797931412292,-0.0004118514170642575,-0.000303301147086104,0.01256816979119341,0.002101951014412764,-0.002821718421377342,0.10040683344001217,5.932825024679353,2.7755905625878956,0.36677465801165227,0.3195165286098663,0.11937102084844373,25.0,25.0,25.0,25.0,25.0,25.0,24.0,9.614,0.0,0.0,1.0,1780984954952437266
1780984955054070930,1.4682338093161177e-6,57.289700765058136,103.13257111792484,-0.0002493762565784577,-0.002863728525749397,0.0000465707084206217,-0.004377765813063044,0.0026059619990970147,0.002680018555913938,-0.03969514203123214,-0.0069106156170946915,0.009037733192769352,0.0995969903908908,5.935407603668979,2.7773486490648627,0.3669118243404407,0.31896449256872594,0.11940591568630768,25.0,25.0,25.0,25.0,25.0,25.0,24.0,9.618,0.0,0.0,1.0,1780984954998963061
1780984955154701268,-0.00008666770390131457,57.29419652225745,103.13272395999311,-0.0011632908541858158,-0.0009360149562773404,0.0001583374529892518,-0.0009143900377756632,-0.012934583517806688,-0.00832419169974878,0.015776184754068362,-0.0025087222001945724,-0.00023480615878560996,0.14971739551551605,5.956910215037166,2.772512388278847,0.3518844974206745,0.32066529628998036,0.11568045630332562,25.0,25.0,25.0,25.0,25.0,25.0,24.0,9.667,0.0,0.0,1.0,1780984955135416349
1780984955253939056,-0.00010278944769594331,57.29418249966298,103.13273098204712,-0.0012691916394094573,-0.000977241492258668,0.00019131100551368776,0.0026219604312834894,0.0008939852651109664,0.0014284282147779854,0.02222150097229375,0.0030750853380980907,-0.004651444482387764,0.14308382219343418,5.932104227331574,2.761880156380579,0.35578389082394135,0.32048627748459785,0.11617806524312624,25.0,25.0,25.0,25.0,25.0,25.0,24.0,9.63,0.0,0.0,1.0,1780984955155559403
1780984955354615907,3.0432950577494885e-6,57.28969440904333,103.13256529222843,-0.00022773094931013635,-0.002859708402229188,0.00004161398757468026,0.0016232201303679958,-0.002883919728714181,-0.0020290095807811307,0.015182275055415792,0.0025479975097681996,-0.003721828845749471,0.09231460524483516,5.947976378940059,2.7853030803485352,0.3686237105355255,0.3178630490920449,0.11985131828327916,25.0,25.0,25.0,25.0,25.0,25.0,24.0,9.632,0.0,0.0,1.0,1780984955352882998
1780984955456587632,-0.00008011755730343232,57.29435789320308,103.13273171467976,-0.0010617932992131418,-0.0008711710310792457,0.00014955055439929132,0.0020101854357885865,0.002850612659507298,0.0014602507064990534,0.015661572848862357,0.002850311434953726,-0.0034552670990603295,0.14364306111261,5.931941724740649,2.7616832700382057,0.3561487246346064,0.32070857915767476,0.11629482499921837,25.0,25.0,25.0,25.0,25.0,25.0,24.0,9.63,0.0,0.0,1.0,1780984955450980192
1780984955553656744,-0.00006046391102013346,57.29439767712477,103.1327517137198,-0.000981793077044017,-0.0008441683423154867,0.00011634023782665544,0.00020632983328191764,0.003145362981896998,0.001375156505050631,-0.003162885789338868,0.00029495168274386573,-0.0000619530564293543,0.1423549190245016,5.929321813318557,2.7620997844549695,0.3548625040903542,0.31920390258155634,0.11573860200499682,25.0,25.0,25.0,25.0,25.0,25.0,24.0,9.624,0.0,0.0,1.0,1780984955471450468
1780984955653998259,1.9304457365274805e-6,57.28968129742619,103.13255109799132,-0.00021862247951295408,-0.002851648247187666,0.00003915756167936447,0.001835026276205982,0.0002008623929650891,-0.00042506370391330063,0.016166567488807963,0.002769215754091268,-0.003560172170611603,0.10336565703354504,5.933078706708557,2.7767538709866137,0.3666734957693703,0.31823320814100753,0.11938462930006231,25.0,25.0,25.0,25.0,25.0,25.0,24.0,9.617,0.0,0.0,1.0,1780984955635894928
1780984955753957179,-0.00016440086135001392,57.29413576155176,103.13268239771524,-0.0016434496541392954,-0.0010602536883331617,0.0003002145906517048,0.004269223725264197,0.0004379944105175589,0.0016581689533482697,0.0334144615858865,0.005986084509706675,-0.007914633889882809,0.14263534075002138,5.935207976716464,2.7644361007729117,0.35715969442911577,0.3189993683982206,0.11652274141687095,25.0,25.0,25.0,25.0,25.0,25.0,24.0,9.635,0.0,0.0,1.0,1780984955740610257
1780984955853883636,-0.00007317586780985812,57.294190445933815,103.13274382076834,-0.00099506671166509,-0.0009481997136716934,0.00014000775140746087,0.00043112581901302377,0.004011603449818628,0.0017795589432461549,-0.00023385540787474227,0.0006970100710079957,-0.0003542160727224553,0.14300340531051758,5.933846500109612,2.7650882440045095,0.354801553901204,0.3178523556716544,0.11575692260055394,25.0,25.0,25.0,25.0,25.0,25.0,24.0,9.63,0.0,0.0,1.0,1780984955779307354
1780984955954290581,0.000011618568395112005,57.2896944454808,103.13256216325614,-0.00015332644245932286,-0.002845514172535597,0.00002454347322571948,0.0015379977717509931,-0.0008482511441571594,-0.000994721536136048,0.01384048261858076,0.0024976648326069605,-0.0032595640780253773,0.09515294473050244,5.945735483745394,2.784375057075224,0.3677315670178153,0.3170412166772092,0.11959971935238473,25.0,25.0,25.0,25.0,25.0,25.0,24.0,9.63,0.0,0.0,1.0,1780984955950607405
1780984956053909073,-0.0001263016617954916,57.29425862431171,103.13269370654167,-0.0013802307334337932,-0.0009520088188012488,0.00022985762908850048,-0.005234795878872936,-0.011003378638595905,-0.008745034980818599,-0.02387050831368539,-0.004707503638777833,0.007917991796992778,0.14327865306381743,5.9435681996110805,2.765614188610261,0.35212302716629745,0.3223876560796107,0.11559321159287202,25.0,25.0,25.0,25.0,25.0,25.0,24.0,9.643,0.0,0.0,1.0,1780984956031891082
1780984956153736365,-0.00016606466540356382,57.29423019978691,103.13269736912588,-0.0017051470131722371,-0.0010471774128610449,0.00030628497106108623,0.004380940019206388,-0.00036709578953708866,0.002309437495440677,0.03514814757143792,0.0054095656804814705,-0.007980318564714043,0.13988079862989466,5.93843621602633,2.764598594019524,0.3565907303260584,0.3203382496383995,0.1164703872863175,25.0,25.0,25.0,25.0,25.0,25.0,24.0,9.636,0.0,0.0,1.0,1780984956103221175
1780984956254670159,-0.00016606466540356382,57.29423019978691,103.13269736912588,-0.0017051470131722371,-0.0010471774128610449,0.00030628497106108623,0.004380940019206388,-0.00036709578953708866,0.002309437495440677,0.03514814757143792,0.0054095656804814705,-0.007980318564714043,0.13988079862989466,5.93843621602633,2.764598594019524,0.3565907303260584,0.3203382496383995,0.1164703872863175,25.0,25.0,25.0,25.0,25.0,25.0,24.0,9.636,0.0,0.0,1.0,1780984956103221175
1780984956353811912,-0.00007805063687824682,57.29422945801251,103.13275664184788,-0.0011555433125334264,-0.0009507750455409326,0.00014943641988586314,-0.0032081087992185736,0.004023180236508089,0.003509367195276864,-0.042803853570938744,-0.005664989383319273,0.006838167625427161,0.14183231180578015,5.928863950658464,2.761344640044054,0.35538607023646396,0.3198888354116927,0.11590356267514236,25.0,25.0,25.0,25.0,25.0,25.0,24.0,9.623,0.0,0.0,1.0,1780984956345036643
1780984956454082124,-0.00007353346652494814,57.29427627615662,103.13274549924805,-0.0010745567446593376,-0.0009117445461854152,0.00013959680165791548,0.0017672690780219883,0.0039697204292203055,0.0003625642450791431,0.01883451281000321,0.003992619248661939,-0.003178531200864796,0.14439802293091958,5.93351587633979,2.761541821407744,0.35706796985990263,0.32109624722255736,0.116642269425763,25.0,25.0,25.0,25.0,25.0,25.0,24.0,9.634,0.0,0.0,1.0,1780984956414547145
1780984956556554052,-0.00007353346652494814,57.29427627615662,103.13274549924805,-0.0010745567446593376,-0.0009117445461854152,0.00013959680165791548,0.0017672690780219883,0.0039697204292203055,0.0003625642450791431,0.01883451281000321,0.003992619248661939,-0.003178531200864796,0.14439802293091958,5.93351587633979,2.761541821407744,0.35706796985990263,0.32109624722255736,0.116642269425763,25.0,25.0,25.0,25.0,25.0,25.0,24.0,9.634,0.0,0.0,1.0,1780984956414547145
1780984956654351487,5.558815331085339e-6,57.28969794449214,103.13256899697372,-0.00021541068678426216,-0.0028572778027961747,0.000037994884780105615,-0.002804473595658803,0.0018114698404504389,0.001863907655118031,-0.02561794220435535,-0.00448646549886761,0.005859203633237496,0.1000991440513853,5.933587815209367,2.7761010487438003,0.3668407775029709,0.3193502732257635,0.11938932821918216,25.0,25.0,25.0,25.0,25.0,25.0,24.0,9.615,0.0,0.0,1.0,1780984956641370677
1780984956754363792,-0.00011068616825635257,57.29433543665379,103.13272473367894,-0.00140887548684824,-0.0009278911854024508,0.0002036757216973392,-0.00725370705136068,-0.018015609396161904,-0.009339428526980517,-0.0355992328815857,-0.010537131385165476,0.01162017832097377,0.15006120960598976,5.949085685894401,2.766202636714612,0.3522558647857563,0.32394688083010403,0.11583656522135068,25.0,25.0,25.0,25.0,25.0,25.0,24.0,9.657,0.0,0.0,1.0,1780984956747102690
1780984956854211098,-0.00006026936320808936,57.29425060656806,103.13275638100195,-0.00102425999387766,-0.0009132952928787368,0.00011589080169856878,0.0014105927576776411,-0.003034257403992058,-0.0004105076705528644,0.019130382264491253,0.0012885154294861726,-0.002687417496218023,0.14715097408750732,5.943721928105768,2.76684457859854,0.35802566585738355,0.31937217228130577,0.1170989350247791,25.0,25.0,25.0,25.0,25.0,25.0,24.0,9.652,0.0,0.0,1.0,1780984956789035873
1780984956954524484,-2.631673670969761e-6,57.28969674143923,103.1325673205426,-0.0002750605712300235,-0.0028681219054864453,0.00005294718377131643,0.0016207657152427456,-0.0034502855756022273,-0.0027819171496865458,0.017327771945395108,0.002752902537603658,-0.003860658176212745,0.09139068631700407,5.950187826561244,2.787125275469237,0.3692336042387869,0.3176803550981078,0.1200538449060286,25.0,25.0,25.0,25.0,25.0,25.0,24.0,9.636,0.0,0.0,1.0,1780984956945618686
1780984957053800447,-0.00007527639479462953,57.294196263153026,103.13274699437297,-0.0011347231674233428,-0.0009599710863665356,0.00014218475414995915,0.002437590839873253,0.0005208452891301858,-0.000045443447083498334,0.013419024315151738,0.003961172593322185,-0.004760412686504983,0.14473309077239957,5.939917139247787,2.766471609622435,0.3563862180824417,0.3187042151659168,0.1164355090224035,25.0,25.0,25.0,25.0,25.0,25.0,24.0,9.643,0.0,0.0,1.0,1780984957047039771
1780984957154323239,-0.000134882736346333,57.2942557506475,103.13270003881496,-0.0014689190166716649,-0.0009764980340598224,0.0002456662896628851,0.003483421888812374,0.004223125092395745,0.0014498741501055871,0.027544128576209713,0.0065270773409187004,-0.006411884701786766,0.1432175851287371,5.934087342427355,2.763154091571405,0.3558052627657068,0.3200587534261792,0.11618688771052546,25.0,25.0,25.0,25.0,25.0,25.0,24.0,9.633,0.0,0.0,1.0,1780984957084417107
1780984957253910117,0.00001614032968661036,57.2896875563998,103.13255649736496,-0.00010594397269869534,-0.0028372765715940296,0.000014906494970164725,0.0005198340768937233,0.00006162031290561729,0.00032909413543608394,0.0037121753264535906,0.0004878725469671693,-0.0008364358508952036,0.09971146233162873,5.934112965707487,2.776444049244738,0.3668735895117105,0.31928030176272343,0.11939703855659103,25.0,25.0,25.0,25.0,25.0,25.0,24.0,9.616,0.0,0.0,1.0,1780984957251165325
1780984957353841969,6.806576115483154e-6,57.28969746118421,103.1325673468904,-0.0001987347138395933,-0.002854788519706729,0.00003542740448528572,-0.0026534586825189524,0.0017308042682359075,0.001819892721181831,-0.024430065232084953,-0.004274497774456062,0.0055555212962822955,0.1000542156500738,5.933532537933304,2.776070714495772,0.36685656341066,0.31935636537966156,0.11939418482661328,25.0,25.0,25.0,25.0,25.0,25.0,24.0,9.615,0.0,0.0,1.0,1780984957332156563
1780984957458543823,-0.00011147432130994973,57.294173081853586,103.1327248060328,-0.00131474396135873,-0.001002455651076827,0.0002080368716960865,0.0026362559313927157,0.001389124443952435,0.0015339618015281602,0.017354730349304924,0.0033347686146452276,-0.0046924390676833065,0.1420605041709485,5.927391592316474,2.760003985652129,0.3554352215673312,0.32089696392506467,0.11599502809801111,25.0,25.0,25.0,25.0,25.0,25.0,24.0,9.622,0.0,0.0,1.0,1780984957374977070
1780984957559273323,0.000020895710434497546,57.289694057008575,103.13256254937473,-0.00007595490781201862,-0.0028334525050913986,7.241468036488083e-6,0.0013686516006833735,-0.0004676712528007012,-0.0004291581121182781,0.011863384670689038,0.00200164543315426,-0.0026739595356421045,0.101236217544647,5.932057046776382,2.7756582101843192,0.3665689785639484,0.3188716794083496,0.11931503023689718,25.0,25.0,25.0,25.0,25.0,25.0,24.0,9.614,0.0,0.0,1.0,1780984957557720728
1780984957658942793,-0.0002280131303347865,57.29434116675459,103.132791123435,-0.002420453350901762,-0.0011404779709694626,0.00044387073443701296,-0.030031507614952387,0.027160117196935295,0.0175641350883699,-0.2777681410744968,-0.04222342809324131,0.06126007325072412,0.14468703727910853,5.901286598851166,2.750042101537384,0.36380758269975266,0.31916671239978117,0.1179340899322984,25.0,25.0,25.0,25.0,25.0,25.0,24.0,9.597,0.0,0.0,1.0,1780984957641645743
1780984957759315667,-0.00016895080512925454,57.29426996539435,103.13269131144298,-0.0017289743703111705,-0.0010176583033997197,0.0003103840809010121,0.004389504502159371,0.0032356198704871866,0.0014887007556299869,0.034790291569535274,0.007649828195371616,-0.008203688096936609,0.14163612950451798,5.931619113180673,2.761644980395286,0.3590708340537518,0.31995258785822117,0.11704269343031153,25.0,25.0,25.0,25.0,25.0,25.0,24.0,9.631,0.0,0.0,1.0,1780984957677619913
1780984957859227668,-0.00016895080512925454,57.29426996539435,103.13269131144298,-0.0017289743703111705,-0.0010176583033997197,0.0003103840809010121,0.004389504502159371,0.0032356198704871866,0.0014887007556299869,0.034790291569535274,0.007649828195371616,-0.008203688096936609,0.14163612950451798,5.931619113180673,2.761644980395286,0.3590708340537518,0.31995258785822117,0.11704269343031153,25.0,25.0,25.0,25.0,25.0,25.0,24.0,9.631,0.0,0.0,1.0,1780984957677619913
1780984957960518662,-0.00008619489187264243,57.29417810877779,103.13273655243894,-0.001099579165482937,-0.0009639222379614436,0.0001628476993741036,0.0020693404119388006,-0.0021527060258992167,-0.0006294335833373393,0.022421301733116197,0.0030334186809646895,-0.0040900878132932,0.1459483779041359,5.94309107620776,2.7671176820208316,0.35802356750232495,0.3190835707423434,0.1170318870626823,25.0,25.0,25.0,25.0,25.0,25.0,24.0,9.65,0.0,0.0,1.0,1780984957955190647
1780984958059454636,-0.00010375783689887009,57.294139675117954,103.1327193186198,-0.0011937759986446876,-0.0009930380375515796,0.00019309337924615683,0.0025538771530667936,0.0013847413584276874,0.0012801455717480978,0.02233006012195399,0.0031324042284545514,-0.0044613862459582515,0.14251847183448962,5.930204626749746,2.761316494042004,0.3636515900879628,0.31709293382012005,0.11816383090574872,25.0,25.0,25.0,25.0,25.0,25.0,24.0,9.633,0.0,0.0,1.0,1780984957991614785
1780984958159339170,-0.00010375783689887009,57.294139675117954,103.1327193186198,-0.0011937759986446876,-0.0009930380375515796,0.00019309337924615683,0.0025538771530667936,0.0013847413584276874,0.0012801455717480978,0.02233006012195399,0.0031324042284545514,-0.0044613862459582515,0.14251847183448962,5.930204626749746,2.761316494042004,0.3636515900879628,0.31709293382012005,0.11816383090574872,25.0,25.0,25.0,25.0,25.0,25.0,24.0,9.633,0.0,0.0,1.0,1780984957991614785
1780984958260527573,6.540694276562434e-6,57.28969044129567,103.13256586068312,-0.0002062881685241847,-0.002856812311677436,0.000035134901253677366,0.0015947472702877372,-0.002597451938546714,-0.0017676188724417158,0.0142378835198347,0.002472008432106988,-0.003618241741295936,0.09251764238021588,5.946906914230482,2.784479827026398,0.3684317256680431,0.3179498124135605,0.11978596465723514,25.0,25.0,25.0,25.0,25.0,25.0,24.0,9.63,0.0,0.0,1.0,1780984958250174834
1780984958358948184,-0.00008193889585843636,57.29427941077088,103.13273228112617,-0.0010749534943009047,-0.0009237382329137616,0.00015292049973696505,0.0018922002832965897,-0.011776665444401604,-0.008357584395203918,0.0379471432680651,0.0018395599589866567,-0.005603908454261247,0.14947211454355042,5.955536325957175,2.770445925211628,0.35278688960569504,0.3224112371855308,0.1159977960980028,25.0,25.0,25.0,25.0,25.0,25.0,24.0,9.667,0.0,0.0,1.0,1780984958296670802
1780984958459430802,-0.00008193889585843636,57.29427941077088,103.13273228112617,-0.0010749534943009047,-0.0009237382329137616,0.00015292049973696505,0.0018922002832965897,-0.011776665444401604,-0.008357584395203918,0.0379471432680651,0.0018395599589866567,-0.005603908454261247,0.14947211454355042,5.955536325957175,2.770445925211628,0.35278688960569504,0.3224112371855308,0.1159977960980028,25.0,25.0,25.0,25.0,25.0,25.0,24.0,9.667,0.0,0.0,1.0,1780984958296670802
1780984958559596483,-0.000060386254061208595,57.29420042294217,103.1327529305438,-0.0009167571781648794,-0.000932127803282685,0.00011720889531501472,0.0014306045271232578,-0.000730761731873741,0.0003319467337886761,0.014876493281930572,0.0015171138613242876,-0.002574869099159629,0.14638274407364285,5.941473639302432,2.765813115706368,0.35747486885876234,0.31955372221082334,0.11688075119283908,25.0,25.0,25.0,25.0,25.0,25.0,24.0,9.648,0.0,0.0,1.0,1780984958548712952
1780984958659300642,-0.00008085113360907925,57.2942183400092,103.13277417069273,-0.0011028316643136742,-0.0009846208471083035,0.00016311069263691522,0.0005429257811914878,0.0025944583566334892,0.001501793025890532,0.00111938937762545,0.0011303553928999253,-0.0007073049308100438,0.14989849626336002,5.902965323166684,2.748418011911012,0.3608270960029734,0.319392259120568,0.11724631209919682,25.0,25.0,25.0,25.0,25.0,25.0,24.0,9.599,0.0,0.0,1.0,1780984958596579019
1780984958758889514,-0.00008085113360907925,57.2942183400092,103.13277417069273,-0.0011028316643136742,-0.0009846208471083035,0.00016311069263691522,0.0005429257811914878,0.0025944583566334892,0.001501793025890532,0.00111938937762545,0.0011303553928999253,-0.0007073049308100438,0.14989849626336002,5.902965323166684,2.748418011911012,0.3608270960029734,0.319392259120568,0.11724631209919682,25.0,25.0,25.0,25.0,25.0,25.0,24.0,9.599,0.0,0.0,1.0,1780984958596579019
1780984958861523527,0.000013371766904336988,57.2896916302568,103.13255697938052,-0.00012881698302655612,-0.00283995253153815,0.000019956222663508095,0.001566166359078851,-0.0002821752675042924,-0.00028638836466926294,0.013384753223310392,0.002229990316601355,-0.0029859788405530805,0.10022305900636028,5.932111259084179,2.7751112006760925,0.3668097567034922,0.3196713402246353,0.11938162429425354,25.0,25.0,25.0,25.0,25.0,25.0,24.0,9.613,0.0,0.0,1.0,1780984958854319107
1780984958959314340,-0.0001324918420990729,57.29417541308598,103.1327094033299,-0.001441206350753884,-0.0010170818262936626,0.00024317262156956052,0.0034118125159503777,0.0012493591236034409,0.002203458957419825,0.0266508976367706,0.004043895391833042,-0.005985779748131426,0.14319572470989167,5.933881719153497,2.763106949245612,0.3557953647876921,0.3199198649414652,0.11618129152023812,25.0,25.0,25.0,25.0,25.0,25.0,24.0,9.632,0.0,0.0,1.0,1780984958890201394
1780984959059191276,-0.0001324918420990729,57.29417541308598,103.1327094033299,-0.001441206350753884,-0.0010170818262936626,0.00024317262156956052,0.0034118125159503777,0.0012493591236034409,0.002203458957419825,0.0266508976367706,0.004043895391833042,-0.005985779748131426,0.14319572470989167,5.933881719153497,2.763106949245612,0.3557953647876921,0.3199198649414652,0.11618129152023812,25.0,25.0,25.0,25.0,25.0,25.0,24.0,9.632,0.0,0.0,1.0,1780984958890201394
1780984959158866928,-0.00006704498362804066,57.294203096749754,103.13275466816556,-0.0011091965731225943,-0.0009440644478956422,0.00012788559682742217,0.00003601074111690256,0.001935512164442496,0.0014139616733556655,-0.006770676455662741,-0.000428038680146171,0.000247616218113911,0.14087181478034586,5.923757526137264,2.759027516515301,0.3545231574045024,0.3202299768706372,0.11555375452462244,25.0,25.0,25.0,25.0,25.0,25.0,24.0,9.614,0.0,0.0,1.0,1780984959140844671
1780984959262529957,-0.00007745295461364644,57.29416744125216,103.13274214586885,-0.001046399955918713,-0.000961887880460996,0.00014655053291363784,0.0016136801559579644,0.0014562620681233584,0.0009831771287465596,0.006989148004738667,0.0020924076068081832,-0.0028860804129888216,0.1412961431176998,5.929677358078993,2.7617235666071167,0.35553453025736476,0.31993424577346763,0.11596395982222098,25.0,25.0,25.0,25.0,25.0,25.0,24.0,9.624,0.0,0.0,1.0,1780984959215208563
1780984959359420004,-0.00007745295461364644,57.29416744125216,103.13274214586885,-0.001046399955918713,-0.000961887880460996,0.00014655053291363784,0.0016136801559579644,0.0014562620681233584,0.0009831771287465596,0.006989148004738667,0.0020924076068081832,-0.0028860804129888216,0.1412961431176998,5.929677358078993,2.7617235666071167,0.35553453025736476,0.31993424577346763,0.11596395982222098,25.0,25.0,25.0,25.0,25.0,25.0,24.0,9.624,0.0,0.0,1.0,1780984959215208563
1780984959459122667,-0.00007266234323173877,57.29420158088405,103.13276809278572,-0.0011041249127942368,-0.000961437149800776,0.00014313311112557075,-0.0031255526780170156,0.005886297803989608,0.003765383775824301,-0.04251317898264231,-0.005312394853262998,0.006745232606342335,0.1384845719487182,5.921766584389659,2.758284575437492,0.3546434924386959,0.32048939922872793,0.11549759418842692,25.0,25.0,25.0,25.0,25.0,25.0,24.0,9.609,0.0,0.0,1.0,1780984959455297302
1780984959558673421,-0.00009124445175099812,57.29419349233395,103.13273951031331,-0.0011688302998162509,-0.0009668551635735568,0.00017289125077080887,0.002223434079048489,-0.0014977970118944242,-0.0000749989117161995,0.023119675199125084,0.0028576624895509245,-0.00420481677919307,0.14345254835075,5.937556451374491,2.764959660575944,0.35713593954075634,0.3193945233362944,0.1166301410683361,25.0,25.0,25.0,25.0,25.0,25.0,24.0,9.639,0.0,0.0,1.0,1780984959555126737
1780984959659582071,-0.00009124445175099812,57.29419349233395,103.13273951031331,-0.0011688302998162509,-0.0009668551635735568,0.00017289125077080887,0.002223434079048489,-0.0014977970118944242,-0.0000749989117161995,0.023119675199125084,0.0028576624895509245,-0.00420481677919307,0.14345254835075,5.937556451374491,2.764959660575944,0.35713593954075634,0.3193945233362944,0.1166301410683361,25.0,25.0,25.0,25.0,25.0,25.0,24.0,9.639,0.0,0.0,1.0,1780984959555126737
1780984959758794113,-0.00010532921127963256,57.29418496692535,103.13274447598718,-0.0013055092030980495,-0.000996580074710719,0.0002012397413299884,-0.0006301256131686502,0.004995342431172097,0.0034266796120275616,-0.01828518474712982,-0.0019701133007246274,0.0019549137501390338,0.1402159352723478,5.9221041373310745,2.758098428641993,0.3544789267496642,0.3207791733817577,0.11552323234660522,25.0,25.0,25.0,25.0,25.0,25.0,24.0,9.611,0.0,0.0,1.0,1780984959754304854
1780984959858818152,-0.00010425892803175616,57.294167360429896,103.13274943482912,-0.0012104877896442782,-0.0010050623855883474,0.0002023641032564341,-0.0003197539982571234,0.004918815736301235,0.003205459603114466,-0.009837291849432555,-0.0013941786949636576,0.001419962362898433,0.14277290685063507,5.92571552774452,2.7588512247980734,0.3550419582196942,0.3210176195876341,0.11585226873144186,25.0,25.0,25.0,25.0,25.0,25.0,24.0,9.619,0.0,0.0,1.0,1780984959837618605
1780984959959568914,-0.00010425892803175616,57.294167360429896,103.13274943482912,-0.0012104877896442782,-0.0010050623855883474,0.0002023641032564341,-0.0003197539982571234,0.004918815736301235,0.003205459603114466,-0.009837291849432555,-0.0013941786949636576,0.001419962362898433,0.14277290685063507,5.92571552774452,2.7588512247980734,0.3550419582196942,0.3210176195876341,0.11585226873144186,25.0,25.0,25.0,25.0,25.0,25.0,24.0,9.619,0.0,0.0,1.0,1780984959837618605
1780984960058680216,-8.039769543569112e-6,57.289708883064385,103.13257690087214,-0.0003341774070938218,-0.002877923627879645,0.00006618041813844931,-0.006586012439632062,0.003767631836940895,0.0037659136108306327,-0.0593672602158619,-0.010254211190830946,0.013503536323481865,0.09963755920699474,5.934230194522011,2.776545631392406,0.3669224909018661,0.3192080642508921,0.11941198868495112,25.0,25.0,25.0,25.0,25.0,25.0,24.0,9.616,0.0,0.0,1.0,1780984960058351239
1780984960159080357,-0.00010261939001755226,57.29419287283565,103.1327550135586,-0.001159434974314786,-0.0009948581190755829,0.00020143125260464924,-0.0005016334815747112,0.004406337902651265,0.0032863330907139765,-0.010243267052767017,-0.00198582128945231,0.0018179271007553,0.14282748423999353,5.927734748886238,2.759662114335984,0.3573020817466054,0.3201424343200969,0.11648857237453102,25.0,25.0,25.0,25.0,25.0,25.0,24.0,9.624,0.0,0.0,1.0,1780984960155406689
1780984960259392613,-0.00010590306329676218,57.29415500337433,103.1327360125401,-0.0011405296027028576,-0.0009981963912825986,0.0002030645981429779,1.3294708416833008e-6,-0.0061096902184630784,-0.003801188580113098,0.007828830389671994,0.0009702943913268218,-0.0009703913711579374,0.14417897060260634,5.938545572655471,2.7655088462637716,0.35552129705494573,0.31978791104738336,0.1162220462955292,25.0,25.0,25.0,25.0,25.0,25.0,24.0,9.64,0.0,0.0,1.0,1780984960168237965
1780984960359650118,0.000017891028679398647,57.28969099960993,103.1325626357151,-0.00010660090556303042,-0.0028387753609893265,0.000012750711275338412,0.00145051875941389,-0.00035642831507108196,-0.0004225176379100136,0.012674427222599876,0.002154920311982061,-0.002803160166631116,0.10090455608515676,5.931847651008852,2.7751422002319144,0.36675242524611446,0.3194553989129869,0.1193674730856832,25.0,25.0,25.0,25.0,25.0,25.0,24.0,9.613,0.0,0.0,1.0,1780984960349069406
1780984960459295034,-0.00012284322243976694,57.29411800544818,103.13271908535404,-0.0012281603213688734,-0.0010241919308094682,0.0002318181086957325,-0.0002902216684789056,-0.006380440120920038,-0.004212991845023572,0.005528034727356262,0.0007775602282957051,-0.0005249024368128017,0.1440968348044104,5.9378107824037984,2.7651709762291805,0.35486532509885493,0.3200617838269948,0.11603397561068513,25.0,25.0,25.0,25.0,25.0,25.0,24.0,9.638,0.0,0.0,1.0,1780984960452072258
1780984960561684798,-0.0001253123207024089,57.2941383120941,103.1327330861644,-0.0012705533691943795,-0.0010324224567206308,0.00024027921898877677,0.00003997545355322774,0.005960695207324537,0.003988543258692339,-0.006760364344826174,-0.0011278279857229489,0.0009583037071815064,0.14292773379447346,5.928439390203741,2.7598277478557054,0.3581619263338112,0.3199713015357223,0.11674312823072416,25.0,25.0,25.0,25.0,25.0,25.0,24.0,9.626,0.0,0.0,1.0,1780984960465347991
1780984960659532395,0.00001916517487797036,57.28969344757081,103.13256042512528,-0.00008607261817538729,-0.002834764670360384,0.000010110204781826128,0.0014063709522053602,-0.0003692231569790783,-0.000401177965391067,0.012279765579247204,0.0020811824774703254,-0.002747151960677015,0.10080992432900324,5.932788804916314,2.7761728279046816,0.3666431958911242,0.3187089677188297,0.11933632357841845,25.0,25.0,25.0,25.0,25.0,25.0,24.0,9.614,0.0,0.0,1.0,1780984960643430382
1780984960758782576,0.00002186654942513854,57.2896924758955,103.13256287833522,-0.00006848082602283123,-0.00283317081785455,5.7112359893646575e-6,0.001327308803298149,-0.0005046128388325067,-0.0005134553898304097,0.011943357109263692,0.001979994907603991,-0.0026635579337290446,0.0976391523190274,5.940645946032704,2.7810362953802565,0.3674198379314498,0.317797286615159,0.11954473814092118,25.0,25.0,25.0,25.0,25.0,25.0,24.0,9.624,0.0,0.0,1.0,1780984960722328423
1780984960859078420,-0.00013777550147550918,57.29409395348012,103.13270439020737,-0.0013103308401063922,-0.0010436021072717106,0.0002571416055215686,-0.00046242703593303856,-0.006697885255953776,-0.0044736244354521984,0.00412826267449671,0.0006094992683246974,-0.0002675489748339058,0.14400043783104371,5.937323032273257,2.7649761536923942,0.35435272984417787,0.32023883455572155,0.11588638952900412,25.0,25.0,25.0,25.0,25.0,25.0,24.0,9.637,0.0,0.0,1.0,1780984960776131376
1780984960958922993,0.000016762744893907983,57.28969807868086,103.13256653619158,-0.00011624813330145148,-0.002840704037230082,0.000016023796152675422,0.001435127142627093,-0.0005531317065321018,-0.000827202734268306,0.01347406086062574,0.002324231208567414,-0.0029925129139650205,0.09634227965192828,5.943643897774747,2.7830430322566393,0.3676975204812193,0.3172683997519861,0.11961599201784848,25.0,25.0,25.0,25.0,25.0,25.0,24.0,9.628,0.0,0.0,1.0,1780984960948242053
1780984961059029324,8.153065744821205e-6,57.289691710804966,103.13256112089576,-0.00018093063872665836,-0.002850483816780169,0.000030765393691626094,0.0016542860994850504,-0.00033650185377363876,-0.000803946960246814,0.014948020352313823,0.0027022018551541,-0.0033725613094892533,0.10227436987910662,5.934545943198459,2.7782419104331617,0.36608354228380496,0.31665181010149146,0.11916067137679212,25.0,25.0,25.0,25.0,25.0,25.0,24.0,9.617,0.0,0.0,1.0,1780984961027119323
1780984961159495260,-0.00014233031870611028,57.29411230847277,103.13271703475478,-0.0013641263409971491,-0.001054445357599254,0.00026933560434335595,0.0004480199949223946,0.006721498191296302,0.00450571780333228,-0.0040558439338536905,-0.0006436087900891563,0.00030796413888373473,0.1429032651187877,5.928998088756169,2.7600334793326455,0.3588147681208712,0.3197678753008383,0.11693102935901568,25.0,25.0,25.0,25.0,25.0,25.0,24.0,9.627,0.0,0.0,1.0,1780984961070981049
1780984961259336089,0.000013643419685838768,57.28969173203061,103.13256175634936,-0.000137961025482794,-0.002843430974129426,0.000020527964311724563,0.0015267380550248474,0.000014981588014867388,-0.0006126255503161521,0.014230591828205567,0.0025133738085313067,-0.003065471262560865,0.10219581128137864,5.935255262805159,2.7788195287933544,0.3665167935509187,0.3169178437109193,0.1193227986403777,25.0,25.0,25.0,25.0,25.0,25.0,24.0,9.619,0.0,0.0,1.0,1780984961251727784
1780984961359552354,-0.00014702693896923976,57.294080125170005,103.13269564558294,-0.001364112825593389,-0.0010553706630504775,0.0002728701324516165,-0.0005766454365771677,-0.006929385276587766,-0.0046425660767127445,0.003246693847362725,0.00048520196667521225,-0.0000948103919360504,0.14391540174881792,5.937057233965294,2.7648697962061406,0.35403827723909953,0.3203474750747096,0.11579678835171044,25.0,25.0,25.0,25.0,25.0,25.0,24.0,9.636,0.0,0.0,1.0,1780984961346763329
1780984961459634815,-0.00014842709028855942,57.29407807983509,103.13269438365916,-0.0013727027458829684,-0.0010571614087948138,0.00027525723924009117,-0.0005962005065297161,-0.0069685084568821345,-0.004670593128689772,0.00310330055281713,0.0004633139651859996,-0.0000648286611091762,0.14389782596809852,5.937020867117785,2.7648546008992683,0.35399064978965067,0.32036466060149116,0.11578338696006704,25.0,25.0,25.0,25.0,25.0,25.0,24.0,9.636,0.0,0.0,1.0,1780984961384227265
1780984961559455764,-0.00014842709028855942,57.29407807983509,103.13269438365916,-0.0013727027458829684,-0.0010571614087948138,0.00027525723924009117,-0.0005962005065297161,-0.0069685084568821345,-0.004670593128689772,0.00310330055281713,0.0004633139651859996,-0.0000648286611091762,0.14389782596809852,5.937020867117785,2.7648546008992683,0.35399064978965067,0.32036466060149116,0.11578338696006704,25.0,25.0,25.0,25.0,25.0,25.0,24.0,9.636,0.0,0.0,1.0,1780984961384227265
1780984961658842973,0.00001818087262479513,57.28969278019172,103.13256116194438,-0.00009749260915427191,-0.0028369123875545935,0.00001207399123230009,0.001443612581790018,-0.00042612294442001384,-0.00036890728952040767,0.012405711645711049,0.0020912439143837723,-0.0027808336592865532,0.10056528874344169,5.931828661643851,2.77506478608485,0.3667950509730832,0.3195581500559955,0.11937767411668376,25.0,25.0,25.0,25.0,25.0,25.0,24.0,9.613,0.0,0.0,1.0,1780984961641497242
1780984961759600342,-0.00014857310077474612,57.294103421575294,103.13271165419282,-0.001402264748872843,-0.0010624991748903014,0.0002800492611594345,0.0005945323031335138,0.006989648150393822,0.004693083275042268,-0.0030905437988925756,-0.00047207711831705434,0.00007471923139849813,0.1428256598562745,5.929177812638989,2.760102315010813,0.3590729100295802,0.3196859270373313,0.11700383864464974,25.0,25.0,25.0,25.0,25.0,25.0,24.0,9.628,0.0,0.0,1.0,1780984961692507633
1780984961858758880,-0.00014857310077474612,57.294103421575294,103.13271165419282,-0.001402264748872843,-0.0010624991748903014,0.0002800492611594345,0.0005945323031335138,0.006989648150393822,0.004693083275042268,-0.0030905437988925756,-0.00047207711831705434,0.00007471923139849813,0.1428256598562745,5.929177812638989,2.760102315010813,0.3590729100295802,0.3196859270373313,0.11700383864464974,25.0,25.0,25.0,25.0,25.0,25.0,24.0,9.628,0.0,0.0,1.0,1780984961692507633
1780984961959538214,-0.00015243144314530893,57.29407233845124,103.13269094834206,-0.0013985494578670169,-0.0010623169723492703,0.000282102300749394,-0.000658887922441945,-0.007091914008528575,-0.004758086712890716,0.002662663911191587,0.00039183872831830615,0.000032340292894539506,0.14383396658181083,5.93692732698849,2.764813411504278,0.35385419385154304,0.32041611440439793,0.1157454772559965,25.0,25.0,25.0,25.0,25.0,25.0,24.0,9.636,0.0,0.0,1.0,1780984961946932371
1780984962059011529,-0.00015320186674253552,57.29407125544011,103.13269032249131,-0.001403780984416397,-0.0010633158143866191,0.00028342290106460436,-0.0006723261914255047,-0.007117989259009851,-0.004776410633970148,0.00257163766002107,0.0003762780233386509,0.00005336364087392122,0.1438189328017898,5.936911440439769,2.7648059409106387,0.3538278818218487,0.32042648509242794,0.11573826554657242,25.0,25.0,25.0,25.0,25.0,25.0,24.0,9.636,0.0,0.0,1.0,1780984961998490373
1780984962158959774,-0.00015320186674253552,57.29407125544011,103.13269032249131,-0.001403780984416397,-0.0010633158143866191,0.00028342290106460436,-0.0006723261914255047,-0.007117989259009851,-0.004776410633970148,0.00257163766002107,0.0003762780233386509,0.00005336364087392122,0.1438189328017898,5.936911440439769,2.7648059409106387,0.3538278818218487,0.32042648509242794,0.11573826554657242,25.0,25.0,25.0,25.0,25.0,25.0,24.0,9.636,0.0,0.0,1.0,1780984961998490373
1780984962260485969,0.0000104183661072963,57.28969545021688,103.13256466612428,-0.00017100550087724583,-0.002848555930158334,0.00002735368731021727,0.0015572075111251933,-0.0011224757102835073,-0.0012297083212470551,0.013919047729783416,0.0025987449240297777,-0.003371479999420649,0.09385114398230028,5.946679979134638,2.7849485929612845,0.3679398041618859,0.3169650399709174,0.1196472483537086,25.0,25.0,25.0,25.0,25.0,25.0,24.0,9.63,0.0,0.0,1.0,1780984962247347336
1780984962359195184,-0.00015205798755895956,57.294098681234,103.13270899302918,-0.0014260734534319655,-0.0010670588403658603,0.0002860657152537479,0.0006739885150400711,0.007138224424608126,0.004796586633664611,-0.0025728756195192203,-0.0003786552266182458,-0.00005137184959358278,0.1427348567717905,5.9292602166608885,2.7601346372858866,0.3592319451105856,0.3196358497279853,0.1170477803648075,25.0,25.0,25.0,25.0,25.0,25.0,24.0,9.628,0.0,0.0,1.0,1780984962294526802
1780984962459654996,-0.00015205798755895956,57.294098681234,103.13270899302918,-0.0014260734534319655,-0.0010670588403658603,0.0002860657152537479,0.0006739885150400711,0.007138224424608126,0.004796586633664611,-0.0025728756195192203,-0.0003786552266182458,-0.00005137184959358278,0.1427348567717905,5.9292602166608885,2.7601346372858866,0.3592319451105856,0.3196358497279853,0.1170477803648075,25.0,25.0,25.0,25.0,25.0,25.0,24.0,9.628,0.0,0.0,1.0,1780984962294526802
1780984962561532188,-0.0001558844546411159,57.2940675343583,103.13268822321542,-0.0014225816375849842,-0.0010668099711504447,0.00028802962662102875,-0.0007222639143919893,-0.00721405622691368,-0.0048435859365918744,0.0022403193960416163,0.00031794254304871124,0.00013189432841711975,0.1437604060617855,5.936860929102442,2.764780950435434,0.3537360869153841,0.3204636861355018,0.11571332809411158,25.0,25.0,25.0,25.0,25.0,25.0,24.0,9.635,0.0,0.0,1.0,1780984962548974708
1780984962658732154,-0.00015649801792897122,57.29406669185811,103.13268775646571,-0.0014269785319755083,-0.001067611998890598,0.0002890847438874555,-0.0007342116234984547,-0.0072369000965212815,-0.004859507311531286,0.0021621225359756153,0.00030390093852969186,0.0001507487015192483,0.1437460038274659,5.936850182356118,2.764775403726732,0.3537150536313164,0.3204723805007064,0.11570765092023362,25.0,25.0,25.0,25.0,25.0,25.0,24.0,9.635,0.0,0.0,1.0,1780984962590096185
1780984962759354887,-0.00015649801792897122,57.29406669185811,103.13268775646571,-0.0014269785319755083,-0.001067611998890598,0.0002890847438874555,-0.0007342116234984547,-0.0072369000965212815,-0.004859507311531286,0.0021621225359756153,0.00030390093852969186,0.0001507487015192483,0.1437460038274659,5.936850182356118,2.764775403726732,0.3537150536313164,0.3204723805007064,0.11570765092023362,25.0,25.0,25.0,25.0,25.0,25.0,24.0,9.635,0.0,0.0,1.0,1780984962590096185
1780984962858955664,-0.00015709922798845343,57.29406586853137,103.13268730240677,-0.001431310128984902,-0.0010683986344755805,0.0002901190003386761,-0.0007460469710214495,-0.007259491987871803,-0.0048752409662453765,0.002084904359854052,0.00028996956356685725,0.00016944200996718176,0.14373165098676735,5.936839850496995,2.7647700093402965,0.3536944311167652,0.3204809466245883,0.11570209349802564,25.0,25.0,25.0,25.0,25.0,25.0,24.0,9.635,0.0,0.0,1.0,1780984962845054925
1780984962962545232,-0.0001548562473289799,57.29409497659474,103.13270701198424,-0.0014463233617437855,-0.001070750716139038,0.0002909135222087966,0.000736739172407952,0.00725696604921617,0.004879149860738904,-0.0021666130481518453,-0.00030463255498404726,-0.00015078408533728273,0.14264077388973373,5.929318165043583,2.7601578459068605,0.35936648085656175,0.3195936080062383,0.11708457731742664,25.0,25.0,25.0,25.0,25.0,25.0,24.0,9.628,0.0,0.0,1.0,1780984962910974835
1780984963059110550,-0.0001548562473289799,57.29409497659474,103.13270701198424,-0.0014463233617437855,-0.001070750716139038,0.0002909135222087966,0.000736739172407952,0.00725696604921617,0.004879149860738904,-0.0021666130481518453,-0.00030463255498404726,-0.00015078408533728273,0.14264077388973373,5.929318165043583,2.7601578459068605,0.35936648085656175,0.3195936080062383,0.11708457731742664,25.0,25.0,25.0,25.0,25.0,25.0,24.0,9.628,0.0,0.0,1.0,1780984962910974835
1780984963159442913,0.000011857042411080434,57.28969728745753,103.13256670102663,-0.00016219991859638716,-0.0028477304444655886,0.000025044039720486523,0.0015767073530821643,-0.00016781733799846232,-0.0007602901729065958,0.014842386617215809,0.002621569296560386,-0.0031943889435682286,0.10230802708504216,5.9354125304553165,2.779119049660319,0.3664777988767247,0.3166132400435758,0.11931274964376072,25.0,25.0,25.0,25.0,25.0,25.0,24.0,9.619,0.0,0.0,1.0,1780984963154894035
1780984963259424232,-0.0001594330094467712,57.29406268726125,103.13268556037886,-0.001448264088600297,-0.0010714574576265717,0.00029413638441741973,-0.0007927768625460253,-0.0073484257897530525,-0.0049371047840195475,0.001781442161494393,0.0002348119587228341,0.00024335681332440575,0.14367452097339586,5.936800986040284,2.7647493146124327,0.35361426920362005,0.3205145006935921,0.11568054506312012,25.0,25.0,25.0,25.0,25.0,25.0,24.0,9.635,0.0,0.0,1.0,1780984963199521577
1780984963358858535,-0.0001594330094467712,57.29406268726125,103.13268556037886,-0.001448264088600297,-0.0010714574576265717,0.00029413638441741973,-0.0007927768625460253,-0.0073484257897530525,-0.0049371047840195475,0.001781442161494393,0.0002348119587228341,0.00024335681332440575,0.14367452097339586,5.936800986040284,2.7647493146124327,0.35361426920362005,0.3205145006935921,0.11568054506312012,25.0,25.0,25.0,25.0,25.0,25.0,24.0,9.635,0.0,0.0,1.0,1780984963199521577
1780984963458949855,0.000011182995077042758,57.2896923391809,103.1325623537745,-0.00016040351202359671,-0.0028464144300851604,0.000025575740403823933,0.0015369012769157824,-0.0011021654597686682,-0.0011724409390901035,0.013621345930884252,0.002519534917257431,-0.0033315782701053617,0.09373333873193222,5.947063559904685,2.785310817180606,0.36795771026629015,0.31678544843491135,0.11965001641279405,25.0,25.0,25.0,25.0,25.0,25.0,24.0,9.631,0.0,0.0,1.0,1780984963454413002
1780984963558917625,-0.0001605789642458933,57.29406113091427,103.13268471211325,-0.0014566336527698836,-0.0010729616279024398,0.0002961100871065816,-0.0008159864883970649,-0.007392480905590584,-0.004967727246683984,0.0016311488600356237,0.0002073529793418058,0.0002801099801795728,0.1436460369496614,5.936782335554679,2.7647392323486364,0.3535748493215911,0.3205310881339004,0.11566996615349016,25.0,25.0,25.0,25.0,25.0,25.0,24.0,9.635,0.0,0.0,1.0,1780984963551370484
1780984963660549815,-0.00015749265885000877,57.294091523078365,103.13270519609546,-0.0014657477520048671,-0.0010742412195960409,0.0002954872543319508,0.0007955439987884728,0.007368509746266211,0.0049566631917100454,-0.001786493654963455,-0.0002350999837082983,-0.00024393051624033784,0.14254592283519635,5.9293700162279634,2.760178876135062,0.3594954115852071,0.3195530884305771,0.117119728243953,25.0,25.0,25.0,25.0,25.0,25.0,24.0,9.628,0.0,0.0,1.0,1780984963561646255
1780984963758993634,-3.806676310297425e-7,57.289697507317946,103.13257008713772,-0.0002668054793496602,-0.0028671028030069993,0.000049399339813376174,0.0016519107903680294,-0.003193514208879954,-0.0024654227106420757,0.01657278921080486,0.002738823040979849,-0.0038661485061600247,0.09122322637650164,5.9488653933574005,2.7860248400219287,0.36902528962967446,0.3178183099613658,0.11997821869067515,25.0,25.0,25.0,25.0,25.0,25.0,24.0,9.633,0.0,0.0,1.0,1780984963751432297
1780984963861554189,-0.00015853619802521087,57.29409016081932,103.13270448240208,-0.0014734651065168014,-0.0010756246423857469,0.00029729848595797854,0.0008187950067196869,0.007412588152756296,0.004987290885787809,-0.0016361923809638038,-0.0002075681281658012,-0.00028076953005524616,0.14250793158390085,5.929390243942018,2.760187130551083,0.3595466489588988,0.3195369626000898,0.11713368689231712,25.0,25.0,25.0,25.0,25.0,25.0,24.0,9.628,0.0,0.0,1.0,1780984963847997720
1780984963961538731,-0.0001622896314485173,57.29405881210327,103.13268345019868,-0.00146914950974472,-0.001075208946738193,0.00029905727168680644,-0.0008507812891274408,-0.007458418442045729,-0.005013548606227811,0.001406014325702744,0.0001661319011348506,0.0003352408895315588,0.14360333957229926,5.936754763922511,2.7647242222307553,0.3535159386722974,0.3205559277573126,0.11565416582159344,25.0,25.0,25.0,25.0,25.0,25.0,24.0,9.635,0.0,0.0,1.0,1780984963869600923
1780984964058956183,1.2945831818876924e-6,57.2897012783743,103.13256936017002,-0.0002448163820729448,-0.002862902738140129,0.00004668724706015284,-0.003613237992197979,0.002202070849196657,0.002315055198049037,-0.03299986631884473,-0.005739666874383079,0.007498891899378865,0.09907051894709112,5.9344066293930355,2.776644561961179,0.3669968679490313,0.31920730387282,0.11943211932016208,25.0,25.0,25.0,25.0,25.0,25.0,24.0,9.616,0.0,0.0,1.0,1780984964048003208
1780984964159095397,-0.00016342880037101764,57.29405727028957,103.13268261167198,-0.0014774904139222412,-0.0010767065541318474,0.0003010203315180454,-0.000874005990564209,-0.007502367314145922,-0.005044086104835707,0.0012557754916922193,0.00013858625774046642,0.0003720562658186783,0.1435748766013337,5.93673651712501,2.764714239513081,0.3534766674235997,0.3205725060953457,0.11564363598220108,25.0,25.0,25.0,25.0,25.0,25.0,24.0,9.635,0.0,0.0,1.0,1780984964148761040
1780984964258970461,-0.0001600999065429703,57.294088122733214,103.13270341544538,-0.0014850382608164131,-0.001077699086754639,0.0003000131899811121,0.0008536296187493242,0.007478567148041197,0.005033135944872332,-0.0014109513238039534,-0.00016628046765234284,-0.0003359763018868366,0.14245093920719812,5.929420390485763,2.760199477687982,0.3596235139587463,0.31951274227984067,0.11715462284763416,25.0,25.0,25.0,25.0,25.0,25.0,24.0,9.628,0.0,0.0,1.0,1780984964162641781
1780984964358755412,0.00001953450828669406,57.289692643215574,103.13256144957086,-0.00008750690545657743,-0.002835086722841499,9.537544949241864e-6,0.00139570461972258,-0.00029628438292093114,-0.00044781541955172,0.012362142017251583,0.0021181462415879415,-0.0027391809346521807,0.10077309022070054,5.932558352417588,2.776054110662442,0.3667091432280405,0.3186809368283598,0.11936158732957824,25.0,25.0,25.0,25.0,25.0,25.0,24.0,9.614,0.0,0.0,1.0,1780984964355077081
1780984964459017349,0.00001441389740071879,57.28969397794747,103.13256259222094,-0.000132454970078808,-0.002842408588146832,0.000019292804999701292,0.0015097707946594304,-0.000055667555542695906,-0.0006160893414077059,0.014031171080511464,0.0024748889091951434,-0.0030279473088486624,0.10173940869532531,5.934744987420149,2.7782848507239795,0.36660916864042664,0.31725158913729595,0.11934857131015696,25.0,25.0,25.0,25.0,25.0,25.0,24.0,9.618,0.0,0.0,1.0,1780984964432849362
1780984964559179212,-0.00016513931971704631,57.29405495809304,103.13268135432668,-0.001490016970821932,-0.0010789567131927905,0.00030396857075457685,-0.000908921101014108,-0.007568352041843096,-0.005089933437485926,0.0010298872439493667,0.00009713287610600817,0.00042742415655940295,0.14353217010422883,5.936709231237472,2.764699256785605,0.35341763953205657,0.32059744174451876,0.11562781061285712,25.0,25.0,25.0,25.0,25.0,25.0,24.0,9.635,0.0,0.0,1.0,1780984964487934972
1780984964659167206,-0.00016513931971704631,57.29405495809304,103.13268135432668,-0.001490016970821932,-0.0010789567131927905,0.00030396857075457685,-0.000908921101014108,-0.007568352041843096,-0.005089933437485926,0.0010298872439493667,0.00009713287610600817,0.00042742415655940295,0.14353217010422883,5.936709231237472,2.764699256785605,0.35341763953205657,0.32059744174451876,0.11562781061285712,25.0,25.0,25.0,25.0,25.0,25.0,24.0,9.635,0.0,0.0,1.0,1780984964487934972
1780984964758676365,-0.00016571035112190045,57.29405418691556,103.13268093494352,-0.0014941986180291612,-0.001079708256295736,0.00030495294793761576,-0.0009205839973225624,-0.007590371179995774,-0.005105232678211006,0.0009544179420066432,0.00008327521836821453,0.0004459241930009027,0.1435179297978119,5.936700146130373,2.7646942555451046,0.35339791819662747,0.32060577602545487,0.11562252352771428,25.0,25.0,25.0,25.0,25.0,25.0,24.0,9.635,0.0,0.0,1.0,1780984964744696207
1780984964859147587,-0.00016271147948545848,57.294084725701474,103.13270163731691,-0.0015043695918466342,-0.0010811669674764316,0.00030454846587198305,0.0009118105000716412,0.007588576937540615,0.005109577999921671,-0.001034541069301945,-0.00009721889291672782,-0.00042822604664417016,0.14235598376700245,5.929470448247503,2.76022009105396,0.35975199357597326,0.31947217791407667,0.11718961177094304,25.0,25.0,25.0,25.0,25.0,25.0,24.0,9.628,0.0,0.0,1.0,1780984964809260549
1780984964959613958,-0.00016271147948545848,57.294084725701474,103.13270163731691,-0.0015043695918466342,-0.0010811669674764316,0.00030454846587198305,0.0009118105000716412,0.007588576937540615,0.005109577999921671,-0.001034541069301945,-0.00009721889291672782,-0.00042822604664417016,0.14235598376700245,5.929470448247503,2.76022009105396,0.35975199357597326,0.31947217791407667,0.11718961177094304,25.0,25.0,25.0,25.0,25.0,25.0,24.0,9.628,0.0,0.0,1.0,1780984964809260549
1780984965058724863,-0.0001632352152057174,57.29408404535336,103.13270128111512,-0.0015082454674170097,-0.0010818628962144924,0.0003054581818958811,0.0009234800457213624,0.007610611838237486,0.0051248898635327415,-0.000959008161738052,-0.00008335174944125394,-0.00044673563824392567,0.14233700041095831,5.929480452879321,2.760224226963847,0.35977776724706517,0.3194640282828413,0.11719663031664534,25.0,25.0,25.0,25.0,25.0,25.0,24.0,9.628,0.0,0.0,1.0,1780984965056065405
1780984965158887362,-0.0001680000873812557,57.29405109799126,103.1326792547566,-0.001510962921618018,-0.001082723552559638,0.00030890085108266596,-0.000967371437236586,-0.00767859651144297,-0.005166534109787763,0.0006515623616825332,0.00002763125159792075,0.0005201642658527193,0.1434609392008303,5.936663815143532,2.7646741996489324,0.35331876094993314,0.3206392397418721,0.11560130233742202,25.0,25.0,25.0,25.0,25.0,25.0,24.0,9.634,0.0,0.0,1.0,1780984965120826326
1780984965258751137,-0.0001680000873812557,57.29405109799126,103.1326792547566,-0.001510962921618018,-0.001082723552559638,0.00030890085108266596,-0.000967371437236586,-0.00767859651144297,-0.005166534109787763,0.0006515623616825332,0.00002763125159792075,0.0005201642658527193,0.1434609392008303,5.936663815143532,2.7646741996489324,0.35331876094993314,0.3206392397418721,0.11560130233742202,25.0,25.0,25.0,25.0,25.0,25.0,24.0,9.634,0.0,0.0,1.0,1780984965120826326
1780984965359360552,5.752200393832969e-6,57.28970329469132,103.13257059099864,-0.00021081841645715296,-0.0028566355649060245,0.00003844102064571039,-0.003387147611609227,0.0020373588249586474,0.0021503134839504414,-0.030986411530678853,-0.005398501740217654,0.007022990072232572,0.09984359755728718,5.9328328852889545,2.77568340141348,0.3669539026593717,0.31942373883256997,0.11942417779381824,25.0,25.0,25.0,25.0,25.0,25.0,24.0,9.614,0.0,0.0,1.0,1780984965356744778
1780984965460892087,-0.0001653358144680774,57.294081319463366,103.13269985349716,-0.0015237858096063405,-0.0010846556297385962,0.0003091074865602259,0.0009702918098290988,0.007698900465267762,0.00518624303003604,-0.0006558907279336012,-0.00002767405553909898,-0.0005210086912289701,0.14226109731257466,5.929520479689569,2.7602408267110294,0.3598811542429554,0.31943129640050544,0.11722478333665538,25.0,25.0,25.0,25.0,25.0,25.0,24.0,9.629,0.0,0.0,1.0,1780984965426965042
1780984965559494730,-0.0001653358144680774,57.294081319463366,103.13269985349716,-0.0015237858096063405,-0.0010846556297385962,0.0003091074865602259,0.0009702918098290988,0.007698900465267762,0.00518624303003604,-0.0006558907279336012,-0.00002767405553909898,-0.0005210086912289701,0.14226109731257466,5.929520479689569,2.7602408267110294,0.3598811542429554,0.31943129640050544,0.11722478333665538,25.0,25.0,25.0,25.0,25.0,25.0,24.0,9.629,0.0,0.0,1.0,1780984965426965042
1780984965658782168,-0.00016972393744896612,57.29404877588776,103.1326779911788,-0.0015235792748497035,-0.0010849954402793204,0.0003118738091636472,-0.0010026108186764642,-0.007744934686044387,-0.005212629547332174,0.0004233400896693891,-0.000014332214776254423,0.0005761053026573188,0.143418162631892,5.936636556247331,2.7646590963736397,0.3532590853621626,0.3206644776190631,0.11558530352841398,25.0,25.0,25.0,25.0,25.0,25.0,24.0,9.634,0.0,0.0,1.0,1780984965640918796
1780984965758686416,-0.0001708764678290556,57.29404722497589,103.13267714698073,-0.0015320116761914587,-0.0010865152206184607,0.00031386181496131184,-0.0010261763289356862,-0.007789244281682451,-0.005243419351733413,0.0002706624534181139,-0.0000424194746801574,0.0006135261749264494,0.14338962814909478,5.9366183730806235,2.7646489961846155,0.3532191490490465,0.3206813715625126,0.1155745964104903,25.0,25.0,25.0,25.0,25.0,25.0,24.0,9.634,0.0,0.0,1.0,1780984965726342911
1780984965859223796,-0.0001708764678290556,57.29404722497589,103.13267714698073,-0.0015320116761914587,-0.0010865152206184607,0.00031386181496131184,-0.0010261763289356862,-0.007789244281682451,-0.005243419351733413,0.0002706624534181139,-0.0000424194746801574,0.0006135261749264494,0.14338962814909478,5.9366183730806235,2.7646489961846155,0.3532191490490465,0.3206813715625126,0.1155745964104903,25.0,25.0,25.0,25.0,25.0,25.0,24.0,9.634,0.0,0.0,1.0,1780984965726342911
1780984965959025494,0.00001179065097520414,57.28968948163701,103.13255928864886,-0.00014763644073341017,-0.002843378299266134,0.000023731990875214057,-0.0011487485590141332,0.0010251712962242123,0.001186497982356333,-0.01115229088454022,-0.0020774876529356468,0.0025492392690801783,0.09922418889667609,5.933789938183372,2.7762554879559533,0.367000724683784,0.319295331674038,0.11943432195804916,25.0,25.0,25.0,25.0,25.0,25.0,24.0,9.615,0.0,0.0,1.0,1780984965957529299
1780984966059064895,-0.00016797503289726987,57.29407790089614,103.13269806193952,-0.0015432980264942166,-0.0010881677951650596,0.0003136938807914755,0.0010291250993268509,0.007809627931890029,0.005263194393176144,-0.0002746550752316119,0.00004241499428425664,-0.0006144070744143762,0.14216629036046463,5.929570556500705,2.7602617121115527,0.3600110724883061,0.3193900726984483,0.11726015977228192,25.0,25.0,25.0,25.0,25.0,25.0,24.0,9.629,0.0,0.0,1.0,1780984966030465235
1780984966158965378,-0.00016797503289726987,57.29407790089614,103.13269806193952,-0.0015432980264942166,-0.0010881677951650596,0.0003136938807914755,0.0010291250993268509,0.007809627931890029,0.005263194393176144,-0.0002746550752316119,0.00004241499428425664,-0.0006144070744143762,0.14216629036046463,5.929570556500705,2.7602617121115527,0.3600110724883061,0.3193900726984483,0.11726015977228192,25.0,25.0,25.0,25.0,25.0,25.0,24.0,9.629,0.0,0.0,1.0,1780984966030465235
1780984966259383707,0.00001242563674007463,57.28969403194156,103.13256382015128,-0.00015197048751412187,-0.0028458167479085703,0.00002327499039192917,0.0015598212931096569,-0.00007896546850752572,-0.0006866243893272135,0.014567754098494793,0.002575773391789584,-0.003142360219392045,0.10182957716770012,5.935372039514422,2.778974203159813,0.366571914500105,0.31678716378395916,0.11933877901951584,25.0,25.0,25.0,25.0,25.0,25.0,24.0,9.619,0.0,0.0,1.0,1780984966247341302
1780984966358765446,-0.0001737695988240643,57.2940433373595,103.13267502988587,-0.0015531693665284706,-0.0010903331755713764,0.0003188534023418095,-0.0010853467273270424,-0.007900317919459419,-0.00532060601223057,-0.00011290691509270047,-0.00011303112429992767,0.0007075261798025489,0.14331823193983806,5.936572870372906,2.7646236329755207,0.3531187651133863,0.32072384983015434,0.1155476816293923,25.0,25.0,25.0,25.0,25.0,25.0,24.0,9.634,0.0,0.0,1.0,1780984966338294700
1780984966458880340,-0.0001737695988240643,57.2940433373595,103.13267502988587,-0.0015531693665284706,-0.0010903331755713764,0.0003188534023418095,-0.0010853467273270424,-0.007900317919459419,-0.00532060601223057,-0.00011290691509270047,-0.00011303112429992767,0.0007075261798025489,0.14331823193983806,5.936572870372906,2.7646236329755207,0.3531187651133863,0.32072384983015434,0.1155476816293923,25.0,25.0,25.0,25.0,25.0,25.0,24.0,9.634,0.0,0.0,1.0,1780984966338294700
1780984966558919258,-0.00016956595096222264,57.29407584348877,103.13269698306276,-0.001555052719633323,-0.0010902866923273153,0.0003164592745803842,0.0010645999105786134,0.007876268411172732,0.005309509765307337,-0.00004463314698244082,0.00008473671821546202,-0.0006707511833780472,0.14210944565220424,5.929600632144055,2.7602743182504472,0.36008939584589145,0.3193651713262131,0.11728148651413103,25.0,25.0,25.0,25.0,25.0,25.0,24.0,9.629,0.0,0.0,1.0,1780984966545255348
1780984966658762748,-0.00017062966598460096,57.29407446923902,103.13269626214732,-0.0015629090513051471,-0.0010917041568536236,0.0003183085630956567,0.0010883232342416471,0.007920781379760348,0.005340447607061359,0.00010925243187023328,0.0001130637412938124,-0.0007084420280442402,0.1420715658200577,5.9296206955666975,2.7602827538250585,0.3601417674607776,0.3193485004729875,0.11729574662849222,25.0,25.0,25.0,25.0,25.0,25.0,24.0,9.629,0.0,0.0,1.0,1780984966625572419
