timestamp_ns,joint_1_pos,joint_2_pos,joint_3_pos,joint_4_pos,joint_5_pos,joint_6_pos,joint_1_vel,joint_2_vel,joint_3_vel,joint_4_vel,joint_5_vel,joint_6_vel,joint_1_current,joint_2_current,joint_3_current,joint_4_current,joint_5_current,joint_6_current,joint_1_temp,joint_2_temp,joint_3_temp,joint_4_temp,joint_5_temp,joint_6_temp,bus_voltage,bus_current,accel_x,accel_y,accel_z,timestamp_ns
1781028000093924384,0.0004005787116058362,57.26143466953725,103.1320634498902,-0.001371777291868791,-0.014571853301920798,-0.00030058895931790595,0.0015817810677467813,-0.004239836194285584,-0.0031037390200620877,0.017452562176062336,0.003502014010314575,-0.0038637332111184568,0.010157395681091115,5.93220623383453,2.769159773388856,0.38259335396024546,0.31999817259905916,0.12377653728290389,25.0,25.0,25.0,25.0,25.0,25.0,24.0,9.538,0.0,0.0,1.0,1781028000088116455
1781028000194126846,0.00040051631125439537,57.26143447011429,103.13206298584927,-0.0013714361883305673,-0.01457155728340232,-0.0003005853076826927,0.001582045141341857,-0.004240380447269814,-0.003104073204375377,0.01745537098510679,0.0035024258897733687,-0.003864320317887681,0.01014252155180569,5.932205905450847,2.769157075218777,0.38259573154322846,0.31999870759148225,0.12377721585547748,25.0,25.0,25.0,25.0,25.0,25.0,24.0,9.538,0.0,0.0,1.0,1781028000176396645
1781028000293402677,0.0003938419027802072,57.26145188196744,103.13207531785852,-0.001443738493745932,-0.014585767937891712,-0.0002844761386350183,-0.0015838861270004417,0.004236298243008175,0.003093364771791268,-0.017450829908565384,-0.003495851019770716,0.00386516836877753,0.01733055354269884,5.940630291934684,2.771831151969581,0.3812025766437891,0.31927071696771236,0.12343195829474142,25.0,25.0,25.0,25.0,25.0,25.0,24.0,9.554,0.0,0.0,1.0,1781028000274263834
1781028000394302731,0.0004003603020040286,57.26143397128481,103.13206182521132,-0.001370582893643218,-0.014570816676206936,-0.0003005764475303772,0.001582705325897422,-0.004241738231142446,-0.0031049064695622512,0.017462390343131844,0.0035034541635037475,-0.00386578735880818,0.010105333801392403,5.932205087965668,2.7691503292110515,0.38260167567813336,0.32000004615745936,0.12377891239320923,25.0,25.0,25.0,25.0,25.0,25.0,24.0,9.538,0.0,0.0,1.0,1781028000383921342
1781028000494130350,0.0003936831365458184,57.261451388583495,103.13207416028722,-0.0014429140394437146,-0.014585031193822175,-0.0002844613680895603,-0.0015845464276698642,0.004237650153397041,0.003094189043705287,-0.017457839927652003,-0.003496870535824875,0.003866631176874764,0.017298314579299062,5.940629672712303,2.771825774182379,0.38120782598850034,0.31927074563754726,0.12343343005972668,25.0,25.0,25.0,25.0,25.0,25.0,24.0,9.554,0.0,0.0,1.0,1781028000475267547
1781028000593526762,0.0004002042808254154,57.261433472064,103.13206066380664,-0.0013697288316060923,-0.014570075266980004,-0.0003005679722791159,0.0015833655152627996,-0.0042430919386460255,-0.003105736591694614,0.01746940591902831,0.003504480403685881,-0.003867253367924719,0.010068142538359706,5.932204275435853,2.769143582356699,0.3826076200665033,0.3200013862804604,0.12378060908265676,25.0,25.0,25.0,25.0,25.0,25.0,24.0,9.538,0.0,0.0,1.0,1781028000586181411
1781028000693751211,0.00039352435837228223,57.26145089478946,103.13207300193515,-0.001442088800874699,-0.014584293638770162,-0.00028444698718969234,-0.0015852067332610836,0.004238997941779329,0.0030950101469185433,-0.017464846135966,-0.0034978880061583813,0.0038680929430447543,0.017266074922439048,5.940629048053943,2.771820396353335,0.3812130757505072,0.3192707727794528,0.12343490186923596,25.0,25.0,25.0,25.0,25.0,25.0,24.0,9.554,0.0,0.0,1.0,1781028000677522114
1781028000793829936,0.0004000645419411934,57.26143320515083,103.13205964430207,-0.0013689239778453069,-0.014569385871480534,-0.000300539246147079,0.001582374081238297,-0.00424571895402842,-0.0031075870195375415,0.017465662594755935,0.0035043569013488898,-0.0038661974958346702,0.010034257640304856,5.9322013626556895,2.769138798435435,0.3826125585885289,0.32000055620003454,0.12378194805392216,25.0,25.0,25.0,25.0,25.0,25.0,24.0,9.538,0.0,0.0,1.0,1781028000783601799
1781028000893815006,0.0003934536312028717,57.26145116940431,103.1320723338557,-0.0014411605675063934,-0.014583721520138477,-0.00028441589441281545,-0.0015810820979764654,0.004257286755174071,0.003107027481226967,-0.017449588190318253,-0.003499870373374313,0.00386511639142948,0.017226438806030826,5.940631759891696,2.771810539274631,0.38122056459784853,0.3192754833965682,0.12343715446010044,25.0,25.0,25.0,25.0,25.0,25.0,24.0,9.554,0.0,0.0,1.0,1781028000881794631
1781028000993612425,0.00040002712960509815,57.261433693443706,103.13205912939648,-0.0013678733081921503,-0.01456887483592723,-0.00030051285405046946,0.0015802708095555423,-0.004261748789849789,-0.0031179598255124,0.01746572173817052,0.003507403544635069,-0.0038662092235110974,0.010004874981547198,5.93219607838214,2.7691356204324427,0.3826164259445024,0.3199978371723965,0.12378292156519762,25.0,25.0,25.0,25.0,25.0,25.0,24.0,9.538,0.0,0.0,1.0,1781028000982620853
1781028001094060309,0.00039344761904825846,57.26145171300645,103.1320718702251,-0.001439926985470192,-0.014583214496771753,-0.00028442606855580866,-0.0015775784129550385,0.0042688674508827,0.0031166475454267174,-0.017438104269334603,-0.003502702972117633,0.003862739769864057,0.017195876360975925,5.940654695719859,2.7718086656872187,0.38122544398690217,0.31927722296957806,0.12343870960370248,25.0,25.0,25.0,25.0,25.0,25.0,24.0,9.554,0.0,0.0,1.0,1781028001079305137
1781028001197051273,0.0003999401691273497,57.2614343943057,103.13205877940688,-0.0013674686852373464,-0.014568519946095017,-0.0003003404699970062,0.0015508196862561734,-0.004195341357089194,-0.0030762768102233083,0.017166155232174424,0.0034560352101433785,-0.003800410004846743,0.00996125476439528,5.932195015533745,2.7691476184866866,0.38261720428910695,0.31998193191616947,0.12378250224411518,25.0,25.0,25.0,25.0,25.0,25.0,24.0,9.538,0.0,0.0,1.0,1781028001193026556
1781028001294027064,0.0003932657428514472,57.261452831070365,103.1320716786717,-0.0014404805657878064,-0.01458295670650647,-0.0002840473785775791,-0.0015540084210811608,0.0042337498494011755,0.0030542780819725218,-0.01713196900926092,-0.0034158953845327953,0.003793909919273259,0.016962123827810583,5.940239892697179,2.771635246829688,0.3812877111881367,0.3193426261330051,0.12345554454862732,25.0,25.0,25.0,25.0,25.0,25.0,24.0,9.553,0.0,0.0,1.0,1781028001285900585
1781028001394218401,0.0003932167018589729,57.26145311225994,103.1320715562767,-0.0014404577265739796,-0.014582848514345144,-0.00028394877731733833,-0.0015720160399638175,0.004297915634819768,0.0031024115653145775,-0.017350826917416233,-0.0034639823445893818,0.003842529846328689,0.01698437797968877,5.940315219688497,2.771662599743647,0.3812799003123117,0.3193315730267842,0.12345348952453422,25.0,25.0,25.0,25.0,25.0,25.0,24.0,9.553,0.0,0.0,1.0,1781028001370769428
1781028001494017156,0.00039357585980086994,57.26145224921107,103.13207065398215,-0.0014359502274228016,-0.014581954034456805,-0.00028478269454332956,-0.0015686831086046617,0.004280824755943707,0.003153178457714411,-0.017442281340216987,-0.0035341535833936025,0.003864828644320152,0.017234389341825203,5.940953169450918,2.77190780028301,0.3812035050596249,0.3192410131538649,0.12343323195044129,25.0,25.0,25.0,25.0,25.0,25.0,24.0,9.554,0.0,0.0,1.0,1781028001489090192
1781028001593543441,0.0003935725701240338,57.26145248734449,103.13207048061652,-0.0014354841084536732,-0.014581757463372752,-0.0002847809148844522,-0.0015673682448460915,0.004285800650550666,0.0031565350057817044,-0.017437373614629572,-0.0035346083170819964,0.0038637819263619626,0.01722321137853922,5.940956624382614,2.7719034907574183,0.3812060768914245,0.3192436575465413,0.12343407171322014,25.0,25.0,25.0,25.0,25.0,25.0,24.0,9.554,0.0,0.0,1.0,1781028001572782011
1781028001693569925,0.0003997122686668157,57.2614360263177,103.13205791317816,-0.0013666455249494137,-0.014567678642099324,-0.00029990058967360305,0.0014768330338650263,-0.004023921209076447,-0.0029685969917517797,0.01640914048101627,0.003325508843896811,-0.003634084558453795,0.009854525466464571,5.932194868436301,2.769180447335323,0.3826184289425141,0.31994076541926264,0.12378121434935983,25.0,25.0,25.0,25.0,25.0,25.0,24.0,9.538,0.0,0.0,1.0,1781028001673973338
1781028001794356380,0.000400057744379056,57.26143527767765,103.13205683277576,-0.0013617993308962298,-0.01456651500659303,-0.0003008145220132803,0.001641764450483982,-0.004537481777005,-0.0032909479804610494,0.018226774654377192,0.003656510287943201,-0.004033740590735012,0.0099557515362995,5.932194175144698,2.769083281445667,0.382637137059135,0.32002725744450383,0.12379015327561951,25.0,25.0,25.0,25.0,25.0,25.0,24.0,9.538,0.0,0.0,1.0,1781028001794128614
1781028001894069188,0.0004000421132684749,57.26143550873644,103.13205665549036,-0.0013614270604363965,-0.01456633035421354,-0.0003007922183424045,0.0016383610355486182,-0.004536209922450293,-0.003290330501754702,0.0181987815533127,0.0036527543487748994,-0.004027620688213164,0.00994221532606319,5.932192131115301,2.7690833527321947,0.3826384716269973,0.3200249360671514,0.1237904303784854,25.0,25.0,25.0,25.0,25.0,25.0,24.0,9.538,0.0,0.0,1.0,1781028001874096682
1781028001993394387,0.00039351980769051473,57.26145375511184,103.13206965284576,-0.0014335025635757066,-0.014580826089732933,-0.00028469560506433393,-0.001560943573562265,0.0043126752786124345,0.003170506032914223,-0.01740606182864921,-0.003532291102286279,0.0038569321711197577,0.017126973780306788,5.940923517935409,2.771869142670914,0.38122581523850224,0.31925823599044006,0.12343982492867596,25.0,25.0,25.0,25.0,25.0,25.0,24.0,9.554,0.0,0.0,1.0,1781028001986923213
1781028002094185527,0.0003996812377705689,57.26143704349118,103.1320569236691,-0.0013642394059202134,-0.014566642649811033,-0.00029990953718489276,0.0014816043239844665,-0.004083691212189201,-0.0030072513430610777,0.016507926934255148,0.003350226203510782,-0.003655995545836025,0.009800264369123105,5.932182852231176,2.7691683108373915,0.3826274890543907,0.3199403213977588,0.12378372846567164,25.0,25.0,25.0,25.0,25.0,25.0,24.0,9.538,0.0,0.0,1.0,1781028002079227839
1781028002196120178,0.00039320969823823193,57.26145527165454,103.13206968443968,-0.0014354091563968338,-0.01458079149505087,-0.00028402026599045303,-0.0015513899211373268,0.004315944994552286,0.003119471538151663,-0.017218786680185658,-0.003455306955756289,0.003813846006155206,0.016847615945251755,5.940371893753857,2.7716407126624727,0.38130378522582054,0.3193440721390139,0.12346089148630196,25.0,25.0,25.0,25.0,25.0,25.0,24.0,9.553,0.0,0.0,1.0,1781028002181039420
1781028002294059070,0.0003999658821099243,57.261436663281266,103.13205576765095,-0.0013595551445924551,-0.01456540477702756,-0.0003006834579335765,0.0016218992364876973,-0.004531388939819225,-0.0032884241242777047,0.018065106858875826,0.003635298949462882,-0.003998416516016452,0.009872930825753964,5.932180088056355,2.769083395681776,0.3826454094284345,0.3200132644175144,0.1237918725024193,25.0,25.0,25.0,25.0,25.0,25.0,24.0,9.538,0.0,0.0,1.0,1781028002281841573
1781028002394651319,0.00039347049152420354,57.26145502144905,103.13206882375732,-0.0014315035440833606,-0.01457989200461238,-0.0002846147817815211,-0.001554538313521488,0.004339394435168394,0.0031846120602799987,-0.017375311857951416,-0.0035302575121974188,0.003850215936831246,0.0170330522581691,5.940893304010092,2.7718355044593164,0.38124514596317777,0.31927276130775883,0.12344548664238826,25.0,25.0,25.0,25.0,25.0,25.0,24.0,9.554,0.0,0.0,1.0,1781028002384083247
1781028002493734179,0.0003996507871908421,57.261438065008136,103.13205593584205,-0.001361843256751236,-0.014565607966989243,-0.0002999170055175785,0.0014860776614336096,-0.0041425452272249134,-0.0030453346243443443,0.016603447043615237,0.0033743566334323532,-0.0036771911898657054,0.00974582280735964,5.932170787628538,2.7691562939331935,0.3826365372000641,0.31993974290057314,0.1237862329800722,25.0,25.0,25.0,25.0,25.0,25.0,24.0,9.537,0.0,0.0,1.0,1781028002490511324
1781028002594240815,0.000393202827379769,57.26145640755519,103.1320687885721,-0.0014329827538257609,-0.014579793009784755,-0.00028403317154910754,-0.0015457957862876045,0.004343328667954619,0.0031415723181219303,-0.01721144289511008,-0.003464028265441534,0.003812562830240176,0.016787768281596373,5.940420062901476,2.771637810598609,0.3813131581358758,0.3193472685496152,0.12346390143669028,25.0,25.0,25.0,25.0,25.0,25.0,24.0,9.553,0.0,0.0,1.0,1781028002586369787
1781028002693778524,0.0003998906487609193,57.261437819536525,103.1320548795602,-0.0013576863463305895,-0.014564478860031512,-0.00030057472449288654,0.0016054427909785987,-0.004526630197661139,-0.003286565279500091,0.01793152947213548,0.0036178837733915536,-0.003969239547130211,0.009803621445725923,5.93216799333946,2.7690834298589873,0.38265237217606807,0.32000158609729834,0.12379332076058704,25.0,25.0,25.0,25.0,25.0,25.0,24.0,9.538,0.0,0.0,1.0,1781028002684312693
1781028002794197257,0.00039342210304306186,57.26145628938396,103.13206799438515,-0.0014295077953216863,-0.014578957650751175,-0.0002845339138937847,-0.0015481516628872364,0.004366107254336116,0.0031987243408196646,-0.017344702990609133,-0.003528258458495353,0.00384353598627818,0.016939189418353012,5.940863152911859,2.771801847511815,0.3812644567757221,0.3192873175520618,0.12345114481729284,25.0,25.0,25.0,25.0,25.0,25.0,24.0,9.554,0.0,0.0,1.0,1781028002792337264
1781028002893785481,0.0003996214004104883,57.26143908773989,103.13205494750976,-0.0013594486799444203,-0.014564572730504544,-0.00029992479875493006,0.0014905883217878084,-0.004201482119357357,-0.003083467025049974,0.016699341628254892,0.0033985518616834218,-0.003698471894128232,0.009691340661422677,5.932158710615071,2.769144280650402,0.3826456055476415,0.31993915332702666,0.12378874243043957,25.0,25.0,25.0,25.0,25.0,25.0,24.0,9.537,0.0,0.0,1.0,1781028002884737970
1781028002993786821,0.0003996156381609247,57.261439292430374,103.13205474978282,-0.0013589699590898403,-0.014564365619546571,-0.00029992638982952494,0.0014914945815426837,-0.004213278638795536,-0.0030910988937532195,0.016718561875148686,0.0034033980576311388,-0.0037027374465669633,0.00968043925452042,5.932156293753318,2.769141878570396,0.38264742159300175,0.3199390339479069,0.12378924489347322,25.0,25.0,25.0,25.0,25.0,25.0,24.0,9.537,0.0,0.0,1.0,1781028002967320499
1781028003093812900,0.0003998163365957561,57.26143897734566,103.13205399112132,-0.0013558200050709512,-0.014563552503930354,-0.0003004661007241866,0.0015890202206501937,-0.004522014275190926,-0.003284815974607893,0.01779837523858293,0.003600577556473845,-0.003940161866002406,0.00973419937580808,5.932155749859563,2.7690834397919413,0.3826593732958686,0.31998989679255097,0.12379477794007346,25.0,25.0,25.0,25.0,25.0,25.0,24.0,9.537,0.0,0.0,1.0,1781028003089539828
1781028003193883744,0.0003998015730418065,57.26143920909074,103.13205381339074,-0.0013554470328570466,-0.014563367181674789,-0.00030044438383434205,0.0015857396197999191,-0.004521108077616504,-0.0032844791530515127,0.017771793779474472,0.0035971291617857898,-0.003934357935156351,0.00972030141350004,5.932153283457006,2.76908343898708,0.3826607780981443,0.3199875575422718,0.12379507043688544,25.0,25.0,25.0,25.0,25.0,25.0,24.0,9.537,0.0,0.0,1.0,1781028003169897005
1781028003294213113,0.0003995929398889619,57.26144011165863,103.13205395866709,-0.0013570557096406757,-0.014563536964973938,-0.0002999328504423954,0.0014951335632404103,-0.004260496423349405,-0.003121645077608041,0.016795583214688648,0.003422807193178307,-0.0037198315874599854,0.0096368171796982,5.932146621673413,2.769132272170069,0.382654693670234,0.31993855160231394,0.1237912566517108,25.0,25.0,25.0,25.0,25.0,25.0,24.0,9.537,0.0,0.0,1.0,1781028003291231493
1781028003393423512,0.0003995873483320491,57.26144031658025,103.13205376083523,-0.001356577303497517,-0.014563329748821132,-0.0002999344880399684,0.0014960468269608952,-0.004272308990580608,-0.003129286419060431,0.01681487407341958,0.0034276656511855815,-0.00372411320014329,0.00962590757688459,5.932144202525173,2.7691298710447225,0.3826565136611862,0.3199384298194605,0.1237917600677229,25.0,25.0,25.0,25.0,25.0,25.0,24.0,9.537,0.0,0.0,1.0,1781028003374116154
1781028003494236947,0.0003997428159294491,57.261440136672576,103.13205310232244,-0.001353956129872684,-0.01456262572660794,-0.00030035752837879163,0.0015726299809461144,-0.004517539906620534,-0.0032831753519131823,0.017665630339384533,0.0035833781272428316,-0.003911180398975524,0.009664663984409514,5.932143358772364,2.7690834267033853,0.3826664125596364,0.3199781957017296,0.12379624394805348,25.0,25.0,25.0,25.0,25.0,25.0,24.0,9.537,0.0,0.0,1.0,1781028003492276866
1781028003593855750,0.0003997281962937809,57.26144036871719,103.13205292451848,-0.001353583650602558,-0.014562440321950611,-0.0003003358154953986,0.0015693557143686705,-0.004516661999502999,-0.003282860262602936,0.01763912967635735,0.0035799509470075055,-0.003905395471714428,0.009650743158863669,5.932140862845163,2.7690834214108113,0.3826678249850702,0.31997585399977296,0.12379653820443152,25.0,25.0,25.0,25.0,25.0,25.0,24.0,9.537,0.0,0.0,1.0,1781028003577847520
1781028003693710326,0.0003933183367880449,57.261459084137606,103.1320661686335,-0.0014251278812869104,-0.01457690109827182,-0.00028435572912395004,-0.0015341640672599287,0.004424853295277826,0.003229799857206025,-0.017277858190334453,-0.003523987965567332,0.003828967288878146,0.016732976476465433,5.94079712296445,2.7717277509084304,0.381306858996298,0.3193194523841233,0.12346357792575044,25.0,25.0,25.0,25.0,25.0,25.0,24.0,9.553,0.0,0.0,1.0,1781028003674804370
1781028003793645747,0.00039955984442834177,57.261441341856745,103.1320527713501,-0.001354186186871842,-0.01456229335454335,-0.00029994279542252985,0.001500634578991375,-0.004331422465929269,-0.0031675230586944107,0.016911545829334372,0.0034519958287673076,-0.003745570664189843,0.009571335280995664,5.93213210037918,2.769117868252376,0.38266562542459376,0.3199378138248378,0.12379428000617876,25.0,25.0,25.0,25.0,25.0,25.0,24.0,9.537,0.0,0.0,1.0,1781028003780128022
1781028003894317347,0.00039318568570402866,57.26146005676448,103.13206592248768,-0.0014252465109099728,-0.014576597996554455,-0.0002840722712818961,-0.001528239088183425,0.0044324828755076436,0.0032132870917907694,-0.01719215260825712,-0.0034928289789186583,0.0038094107767285817,0.01659656812553428,5.940574681957289,2.771628730699931,0.381342945197686,0.31935744017639783,0.12347347872797183,25.0,25.0,25.0,25.0,25.0,25.0,24.0,9.553,0.0,0.0,1.0,1781028003882026034
1781028003994102320,0.00039965547218617623,57.2614415298241,103.13205203527392,-0.0013517227308415833,-0.014561513058943293,-0.0003002272379141885,0.0015530028396577309,-0.004512357260463281,-0.003281350006372033,0.017506864326466774,0.0035628781015676634,-0.003876526858862091,0.00958106960280859,5.932128294638718,2.769083381955918,0.3826749099677867,0.3199641377535941,0.12379801474291792,25.0,25.0,25.0,25.0,25.0,25.0,24.0,9.537,0.0,0.0,1.0,1781028003982084016
1781028004093840987,0.0003932721295127624,57.261460356822674,103.13206533820888,-0.001423141861101531,-0.014575965887944924,-0.0002842745003367039,-0.001527833821973534,0.004451547728825102,0.003243938395918325,-0.01724769246977891,-0.003522103346266645,0.003822401393845793,0.0166393717483644,5.940767237754802,2.771694042442274,0.38132609671306417,0.3193341117285597,0.12346922288780857,25.0,25.0,25.0,25.0,25.0,25.0,24.0,9.553,0.0,0.0,1.0,1781028004078630733
1781028004194294626,0.00039953302164986494,57.261442368216606,103.13205178130792,-0.0013517965531649094,-0.01456125644066836,-0.00029995127565010855,0.0015052585432012086,-0.004390623426169512,-0.003205811449610093,0.01700858672273786,0.003476390470447541,-0.003767111910151984,0.009516722822137356,5.932119988125797,2.7691058701409967,0.3826747568254742,0.31993718619073364,0.12379680470475092,25.0,25.0,25.0,25.0,25.0,25.0,24.0,9.537,0.0,0.0,1.0,1781028004183483686
1781028004293478263,0.0003931814291239687,57.26146120149029,103.132065027006,-0.0014228375933095596,-0.014575599630063475,-0.00028408364987596963,-0.0015228589635017968,0.00446082969346441,0.0032360143367140826,-0.017187441076531425,-0.003502110157188041,0.003808723937916264,0.01653692066431922,5.940623156182104,2.7716259594019235,0.3813521882175822,0.31936060045478004,0.12347645432514956,25.0,25.0,25.0,25.0,25.0,25.0,24.0,9.553,0.0,0.0,1.0,1781028004282407245
1781028004393455556,0.00039958329691935066,57.26144269238613,103.132051145649,-0.0013498642669731791,-0.014560585406194128,-0.00030011860590681386,0.0015366800096588435,-0.0045081937953033125,-0.0032799484159097467,0.01737498982982546,0.003545909586118735,-0.003847750327074251,0.009511279056941564,5.932115578850484,2.769083321508212,0.3826820330321415,0.3199524081076067,0.12379950001428965,25.0,25.0,25.0,25.0,25.0,25.0,24.0,9.537,0.0,0.0,1.0,1781028004384530436
1781028004493716982,0.00039322637739111726,57.26146163093975,103.13206450743762,-0.0014211588484807696,-0.014575030434915932,-0.0002841930640430545,-0.0015215204397503416,0.004478237899740987,0.0032580854217472257,-0.017217659628432073,-0.0035202532754270805,0.0038158697944128297,0.016545846911590927,5.940737427762755,2.7716603136145324,0.3813453124739205,0.3193488051409419,0.12347486398448164,25.0,25.0,25.0,25.0,25.0,25.0,24.0,9.553,0.0,0.0,1.0,1781028004487442518
1781028004593557390,0.0003995067852579031,57.26144339562211,103.13205079069154,-0.0013494083455160412,-0.014560219010436542,-0.0002999598965052592,0.0015099194129887866,-0.004449916034898088,-0.003244154101456949,0.017106006061929427,0.003500851383160738,-0.003788738948095596,0.009462070547690774,5.93210786657075,2.7690938766538795,0.3826839078196325,0.31993654715047354,0.1237993341632256,25.0,25.0,25.0,25.0,25.0,25.0,24.0,9.537,0.0,0.0,1.0,1781028004586257904
1781028004693753058,0.0003931775268115439,57.26146234824391,103.13206413159224,-0.0014204327301799078,-0.014574601315097071,-0.00028409456415507854,-0.0015175294238265334,0.004489414217791972,0.003258896572469672,-0.017183363656005705,-0.0035115274617880084,0.003808180563651002,0.01647732519752788,5.94067170920855,2.7716232211129883,0.38136139937598296,0.3193637513866275,0.12347942149254698,25.0,25.0,25.0,25.0,25.0,25.0,24.0,9.553,0.0,0.0,1.0,1781028004682362425
1781028004793926937,0.00039951157654103184,57.261443856382705,103.13205025563757,-0.001348008248928326,-0.014559657376026554,-0.0003000098788053583,0.001520386331792032,-0.0045041716647969375,-0.0032786556080840945,0.017243499180764902,0.0035290445072211395,-0.003819064302863357,0.009441369753612813,5.932102715466702,2.7690832408888375,0.3826891941877396,0.3199406644190835,0.12380099398877872,25.0,25.0,25.0,25.0,25.0,25.0,24.0,9.537,0.0,0.0,1.0,1781028004788391242
1781028004893589063,0.0003931809899207256,57.26146290647168,103.13206367631436,-0.0014191788234833025,-0.014574094749176434,-0.00028411138280695175,-0.0015152236272126525,0.004504924364981592,0.00327224102340309,-0.017187757491404346,-0.0035184372619634593,0.0038093719603720664,0.016452401956363875,5.940707689726319,2.771626562632216,0.38136450662110183,0.3193635333961389,0.12348050131970656,25.0,25.0,25.0,25.0,25.0,25.0,24.0,9.553,0.0,0.0,1.0,1781028004883644763
1781028004993374440,0.00039946507729331633,57.26144442908566,103.13204980757098,-0.0013471687157039637,-0.014559205708864468,-0.00029993703902862453,0.0015086903978181845,-0.004491818576546081,-0.003270190137980753,0.01713705401672447,0.00351209771632513,-0.003795729291834319,0.009415926997362776,5.93210805501297,2.7690859511802457,0.38269116373330386,0.31993464064483046,0.1238013809742016,25.0,25.0,25.0,25.0,25.0,25.0,24.0,9.537,0.0,0.0,1.0,1781028004993207792
1781028005094175452,0.0003931795808996134,57.26146292716872,103.13206287371018,-0.0014175039131288998,-0.014573413475856686,-0.00028423937480698134,-0.0014828148218507193,0.00441495529749876,0.003206861161757873,-0.01682856505896739,-0.003445846440868116,0.0037296123229932,0.016344395202586036,5.940619499369182,2.7715908078981792,0.381384939948434,0.31937345084800456,0.12348583701150144,25.0,25.0,25.0,25.0,25.0,25.0,24.0,9.553,0.0,0.0,1.0,1781028005086225624
1781028005194838913,0.0003931683145840981,57.261462546510266,103.13206230821709,-0.0014166138100608768,-0.014573026289788052,-0.0002843575515647169,-0.001453518931224658,0.004328184890766446,0.003143914685046392,-0.016497262387481938,-0.003378062710741395,0.0036561286556887488,0.016262978651451057,5.940537892611056,2.771563829855593,0.3814000608927526,0.3193796493056501,0.12348961369540262,25.0,25.0,25.0,25.0,25.0,25.0,24.0,9.553,0.0,0.0,1.0,1781028005169421954
1781028005294272758,0.0003931418656569043,57.26146178625548,103.13206133663184,-0.001415207611093264,-0.014572387275213167,-0.0002845622603912709,-0.001401851048882594,0.004175559835066497,0.003033056678215828,-0.015912771833810135,-0.00325855488398708,0.003526570894302393,0.01612272266169099,5.9403931993903605,2.7715169712077365,0.38142610280749006,0.31939026000545867,0.12349608301529665,25.0,25.0,25.0,25.0,25.0,25.0,24.0,9.552,0.0,0.0,1.0,1781028005286533402
1781028005394020478,0.0003987484272568119,57.26144422169903,103.13204822290211,-0.0013499693628896369,-0.014558696465525996,-0.00029893446321045415,0.0013515935218057916,-0.004043792195996643,-0.0029438104039684436,0.015374004235608914,0.0031546828613759816,-0.0034056348050727696,0.0097040295034914,5.932538198286085,2.7692038002660446,0.3826342510264399,0.31990483943541803,0.12378794939381783,25.0,25.0,25.0,25.0,25.0,25.0,24.0,9.538,0.0,0.0,1.0,1781028005391491263
1781028005493514775,0.00039308802545010626,57.261460215660755,103.1320595170235,-0.001412695379324484,-0.01457122111502917,-0.00028495769542926026,-0.0013030846929412137,0.0038837556136688783,0.0028209908934130577,-0.014794773060547411,-0.0030299688441553464,0.0032788317029549155,0.015859391269152395,5.9401155297134105,2.771428341698276,0.38147500694595343,0.3194101435412441,0.12350818402925276,25.0,25.0,25.0,25.0,25.0,25.0,24.0,9.552,0.0,0.0,1.0,1781028005489819513
1781028005593804655,0.0003982542848133688,57.261443797076495,103.13204724519272,-0.001352309595437069,-0.014558491393675129,-0.00029826221275325104,0.0012463905646849431,-0.0037353593330423616,-0.002719485562968954,0.014184949705012837,0.0029120572206726343,-0.0031422915744714363,0.009912238544045436,5.932832289738181,2.769285411607804,0.38259385750522185,0.3198852331361472,0.12377837573159592,25.0,25.0,25.0,25.0,25.0,25.0,24.0,9.538,0.0,0.0,1.0,1781028005591723900
1781028005694138631,0.0003930317903264794,57.26145836658456,103.13205751112666,-0.0014099642612958785,-0.01456995298901401,-0.0002854152075581395,-0.0011923278407906428,0.003555852162160294,0.0025826587614524834,-0.01354000771302245,-0.002773304868050015,0.0030008040354299777,0.015568177341897605,5.939803242303842,2.771329651913024,0.38152912345487966,0.3194321731143144,0.12352153757888694,25.0,25.0,25.0,25.0,25.0,25.0,24.0,9.551,0.0,0.0,1.0,1781028005688223384
1781028005793900503,0.0003930096487713857,57.26145755147556,103.13205665783931,-0.0014088026254450256,-0.014569416592601305,-0.00028561696065361133,-0.001144712248076409,0.003414639795862553,0.00248002086216891,-0.01300026249870282,-0.002662856213819088,0.002881207263303231,0.01544401044126623,5.939668767369616,2.7712873855352704,0.381552210073661,0.3194415875494125,0.12352722551740196,25.0,25.0,25.0,25.0,25.0,25.0,24.0,9.551,0.0,0.0,1.0,1781028005771483439
1781028005893862398,0.00039297731411032974,57.261456241216194,103.13205531853178,-0.0014069751957123554,-0.01456857736906766,-0.00028594228091432383,-0.0010694142675326003,0.003191047104803818,0.00231750916194446,-0.01214638159263714,-0.0024880747812971206,0.0026920006453427085,0.015248787964794504,5.93945588323864,2.771220718366309,0.38158852414176897,0.31945641892394616,0.12353616296774016,25.0,25.0,25.0,25.0,25.0,25.0,24.0,9.551,0.0,0.0,1.0,1781028005889991228
1781028005993535497,0.00039711722643694146,57.26144257627036,103.13204506308216,-0.001357968904434539,-0.014558117418686355,-0.00029673865816279516,0.0009995378614028124,-0.003008179829457592,-0.00219067601783809,0.011390886585795726,0.0023413159689175413,-0.0025234259031969683,0.010413222699051225,5.933525789430428,2.769479349169364,0.3824972176856508,0.3198393845593733,0.1237554179921496,25.0,25.0,25.0,25.0,25.0,25.0,24.0,9.54,0.0,0.0,1.0,1781028005993334923
1781028006094250475,0.0003968630313859952,57.26144226401944,103.13204458442684,-0.0013592741963501108,-0.014558047917758674,-0.0002964022716959737,0.000943278471860508,-0.002842064685205079,-0.0020698824787195778,0.010753621905997594,0.002211078628222063,-0.0023822728640693776,0.010529315537318812,5.933684298009235,2.7695239340773132,0.38247490484653074,0.31982895046386145,0.1237501082302834,25.0,25.0,25.0,25.0,25.0,25.0,24.0,9.54,0.0,0.0,1.0,1781028006074974427
1781028006193700295,0.0003929085319102031,57.261452706787054,103.13205186852068,-0.00140222913825134,-0.014566426727265025,-0.00028682889704352555,-0.0008724983303686497,0.002604872112296097,0.001891484364245816,-0.009911636515194297,-0.0020303803479424696,0.0021967923457255137,0.014744179641399034,5.938898051827424,2.771047255965685,0.3816824811386651,0.31949493617370683,0.12355923972884318,25.0,25.0,25.0,25.0,25.0,25.0,24.0,9.549,0.0,0.0,1.0,1781028006176329302
1781028006293853342,0.0003928833789940743,57.261450944370225,103.13205022043697,-0.0013999360160741152,-0.014565403187674396,-0.0002872769345425298,-0.0007770426060165961,0.0023200940036843592,0.0016845196377957875,-0.008827600372984903,-0.0018082446732297728,0.001956563218979674,0.014502348842375275,5.938627182660493,2.770963577848046,0.3817275579015809,0.3195134950165934,0.12357028955281696,25.0,25.0,25.0,25.0,25.0,25.0,24.0,9.549,0.0,0.0,1.0,1781028006291872715
1781028006394030433,0.00039286866167760593,57.26144966957751,103.13204905304374,-0.001398299634876556,-0.014564679037989067,-0.0002876037393940303,-0.0007089292626273962,0.002116685995188126,0.001536693844700795,-0.008053841457569409,-0.0016496516222811951,0.0017850889991668053,0.014330789540523272,5.938433762039052,2.770904014373177,0.38175955535267103,0.31952670266792293,0.12357812579195478,25.0,25.0,25.0,25.0,25.0,25.0,24.0,9.549,0.0,0.0,1.0,1781028006377579789
1781028006493550515,0.0003954120502429097,57.26144023553372,103.13204189528732,-0.0013669467545381264,-0.014557725189065396,-0.00029451217935992755,0.0006140004860669625,-0.001868276213221988,-0.0013618072251852637,0.007021790301109045,0.0014481843090818818,-0.0015556754589226708,0.01122024645105902,5.9346142841366465,2.7697872316320455,0.3823425651427067,0.319767881171378,0.12371855401307752,25.0,25.0,25.0,25.0,25.0,25.0,24.0,9.541,0.0,0.0,1.0,1781028006480567075
1781028006594412852,0.0003928416779035599,57.261446065598584,103.13204584633048,-0.0013937463064356726,-0.014562691045564348,-0.0002885409211871003,-0.0005198951242245593,0.0015514901927665143,0.0011259480918880934,-0.005905652186837369,-0.0012092191248197334,0.001309007655262556,0.01385860420420954,5.9378965351420625,2.770739279913309,0.38184770415581704,0.31956324300296746,0.12359968608029934,25.0,25.0,25.0,25.0,25.0,25.0,24.0,9.548,0.0,0.0,1.0,1781028006592313233
1781028006694006762,0.00039453899285537354,57.26143882978312,103.13204029773138,-0.001371706945748747,-0.01455757480269101,-0.0002934005394525963,0.00040886027518765433,-0.0012610409863846618,-0.000920294549114448,0.004696049631375737,0.000972694272873759,-0.0010405341364971008,0.011658874868221564,5.935194887337412,2.769952963976532,0.38225885236322754,0.31972975121714337,0.12369854463806018,25.0,25.0,25.0,25.0,25.0,25.0,24.0,9.542,0.0,0.0,1.0,1781028006687502320
1781028006794395485,0.0003928353020899125,57.2614417151228,103.13204211987129,-0.0013883335434788028,-0.01456037721042024,-0.00028970008371470264,-0.0002971777748263823,0.0008847947093839812,0.0006414444993149657,-0.0033737793586112504,-0.0006899660106020274,0.0007478702223045242,0.013308695054043815,5.93726321338494,2.7705461212598523,0.3819505107277773,0.3196061717233193,0.1236247910743223,25.0,25.0,25.0,25.0,25.0,25.0,24.0,9.546,0.0,0.0,1.0,1781028006787573417
1781028006893933385,0.0003935290287972565,57.26143704785212,103.13203844994209,-0.00137730184199761,-0.014557420906903047,-0.00029214032021336925,0.0001646373658554004,-0.0005383691473885936,-0.0003948899919769355,0.0019274208093714037,0.00040678665281609786,-0.0004273159239474818,0.012187379475617922,5.935886469204608,2.770151594315502,0.3821581907636461,0.3196841661956036,0.12367443791605386,25.0,25.0,25.0,25.0,25.0,25.0,24.0,9.544,0.0,0.0,1.0,1781028006887679581
1781028006993419525,0.0003928622759818286,57.261436366522275,103.13203769061028,-0.0013817107217197963,-0.014557611828949067,-0.000291169359388209,-0.000029278886677107947,0.0000826619248797019,0.000058505205936504506,-0.0003280582798362955,-0.0000652837041894878,0.00007283318601582741,0.012654538961833722,5.9365017216375,2.770314852407134,0.3820730029569273,0.31965780813699507,0.12365466654245852,25.0,25.0,25.0,25.0,25.0,25.0,24.0,9.545,0.0,0.0,1.0,1781028006986063219
1781028007093526048,0.00039281670369974554,57.261436248598585,103.13203708814036,-0.001381098282183313,-0.014557117616972136,-0.0002912301580911876,-1.5058554718661088e-7,4.278703829844477e-6,-1.756810932725062e-6,3.6894161886976007e-6,2.3666390883525205e-6,4.122871962853569e-7,0.012556851243915344,5.936392292766881,2.7702873483466393,0.3820893052967594,0.31965832154906426,0.12365837570453046,25.0,25.0,25.0,25.0,25.0,25.0,24.0,9.545,0.0,0.0,1.0,1781028007084361641
1781028007194310926,0.0003928120904204844,57.2614367198469,103.13203695652068,-0.0013806572520648735,-0.014556910643411788,-0.00029118981866855707,3.921703208440988e-8,4.635692256378951e-6,-1.0517612785392597e-6,4.793577514478896e-6,1.889301651056989e-6,2.9445958441531913e-7,0.01253964269932778,5.936392551405676,2.7702846528546794,0.38209198803082006,0.31965850753604613,0.12365913049239588,25.0,25.0,25.0,25.0,25.0,25.0,24.0,9.545,0.0,0.0,1.0,1781028007190035961
1781028007293813107,0.0003928192277694778,57.261437213506255,103.13203685753918,-0.001380143010300742,-0.014556716562475857,-0.0002911622911184075,8.422042158614599e-8,4.804143100486878e-6,-8.916499269415101e-7,5.0045356769664455e-6,1.850073426642198e-6,2.487001872573959e-7,0.012522284054515024,5.93639220346554,2.7702816507328,0.38209477209979115,0.31965883246223653,0.12365991560875732,25.0,25.0,25.0,25.0,25.0,25.0,24.0,9.545,0.0,0.0,1.0,1781028007287765738
1781028007393972070,0.00039282860640478247,57.26143771684166,103.13203676705022,-0.001379619602924089,-0.014556524295062708,-0.00029113694124107504,9.325560343080845e-8,4.847670326932036e-6,-8.561623077648276e-7,5.034700953606941e-6,1.8434946158791193e-6,2.405577131367463e-7,0.01250492835093174,5.936391812772282,2.7702786193453206,0.38209756505481657,0.3196591727232039,0.12366070356282528,25.0,25.0,25.0,25.0,25.0,25.0,24.0,9.545,0.0,0.0,1.0,1781028007392098347
1781028007493414499,0.0003928384608062915,57.26143822245349,103.13203667834352,-0.0013790948618110936,-0.01455633234900268,-0.000291111981445238,9.54323505608038e-8,4.857428875534271e-6,-8.49145198062586e-7,5.038669347509485e-6,1.8422417884376743e-6,2.391399786045663e-7,0.012487572355178571,5.936391416461899,2.7702755841284743,0.3821003594062896,0.3196595149084299,0.1236614919429989,25.0,25.0,25.0,25.0,25.0,25.0,24.0,9.545,0.0,0.0,1.0,1781028007491705815
1781028007593452311,0.0003928484522266431,57.26143872860624,103.13203658997745,-0.001378570014139093,-0.014556140466093517,-0.00029108708382335715,9.628374099027364e-8,4.860149359289179e-6,-8.47897803317003e-7,5.0381512249022345e-6,1.8419814847014376e-6,2.389803546007409e-7,0.012470215946517505,5.9363910191667415,2.7702725482338737,0.3821031540580833,0.31965985740883196,0.12366228041410712,25.0,25.0,25.0,25.0,25.0,25.0,24.0,9.545,0.0,0.0,1.0,1781028007593248931
1781028007694764771,0.00039285649704950634,57.261439133669995,103.1320365193271,-0.00137815021336954,-0.014555986970855589,-0.0002910671664149511,9.67549315688956e-8,4.8612603331225355e-6,-8.477695218524527e-7,5.037084802026222e-6,1.8419162121271196e-6,2.3904556068314044e-7,0.01245633050973225,5.936390701155863,2.770270119400314,0.38210538985957976,0.3196601314510372,0.12366291121556576,25.0,25.0,25.0,25.0,25.0,25.0,24.0,9.545,0.0,0.0,1.0,1781028007673290044
1781028007793982611,0.00039286660425634994,57.26143964011209,103.13203643101464,-0.0013776255966815563,-0.014555795106906428,-0.0002910422588424972,9.727450203378484e-8,4.8623622054552635e-6,-8.478438850080262e-7,5.035594595537747e-6,1.841874011573284e-6,2.3918142130078624e-7,0.012438973375522864,5.936390303548879,2.7702670832943688,0.38210818467959695,0.31966047401214787,0.1236636997389608,25.0,25.0,25.0,25.0,25.0,25.0,24.0,9.545,0.0,0.0,1.0,1781028007777822212
1781028007893388464,0.0003928767636594602,57.261440146663936,103.13203634269044,-0.0013771011369083709,-0.014555603246643522,-0.0002910173360134639,9.776206622904136e-8,4.863389553014076e-6,-8.479790905537067e-7,5.0340870118135e-6,1.8418436946169112e-6,2.3933381472353674e-7,0.012421615802304048,5.936389905860839,2.7702640471376454,0.38211097956628703,0.31966081657106055,0.12366448828302208,25.0,25.0,25.0,25.0,25.0,25.0,24.0,9.545,0.0,0.0,1.0,1781028007875355435
1781028007993782629,0.00039288697257422786,57.26144065332194,103.13203625435148,-0.0013765768347408286,-0.014555411389657798,-0.00029099239663434246,9.822633348556428e-8,4.864406577396825e-6,-8.481206248685814e-7,5.032566125916842e-6,1.8418097635650384e-6,2.3949921686962724e-7,0.012404257847615525,5.936389508119927,2.7702610109380243,0.3821137745158999,0.3196611591267181,0.12366527684717424,25.0,25.0,25.0,25.0,25.0,25.0,24.0,9.544,0.0,0.0,1.0,1781028007982588036
1781028008094015182,0.0003928972288866701,57.26144116008534,103.13203616599736,-0.0013760526891406452,-0.014555219535912054,-0.000290967439930927,9.86735366717578e-8,4.865411789036032e-6,-8.482725706418492e-7,5.0310870326838e-6,1.841782507104396e-6,2.396647217827319e-7,0.012386899475441393,5.936389110300911,2.7702579746916047,0.3821165695307414,0.31966150167785706,0.12366606543161096,25.0,25.0,25.0,25.0,25.0,25.0,24.0,9.544,0.0,0.0,1.0,1781028008077357205
1781028008194509550,0.0003929054667306582,57.26144156557186,103.13203609530298,-0.0013756334845450822,-0.014555066055284064,-0.00029094746163175746,9.901630031311321e-8,4.866221479475338e-6,-8.483885700771015e-7,5.029891956824787e-6,1.84175565948946e-6,2.398062635376663e-7,0.01237301250440418,5.9363887920073175,2.770255545661724,0.38211880558740696,0.3196617757159129,0.1236666963133867,25.0,25.0,25.0,25.0,25.0,25.0,24.0,9.544,0.0,0.0,1.0,1781028008182814497
1781028008294085640,0.00039291580342811584,57.26144207252466,103.1320360069212,-0.00137510961747347,-0.014554874207494968,-0.0002909224720596526,9.942833036628652e-8,4.867234300788464e-6,-8.485341882494235e-7,5.028410253901592e-6,1.8417218284573352e-6,2.3998868967606885e-7,0.012355653415016855,5.936388394079663,2.7702525093314563,0.3821216007145769,0.31966211825949664,0.12366748493310992,25.0,25.0,25.0,25.0,25.0,25.0,24.0,9.544,0.0,0.0,1.0,1781028008277168886
1781028008393653390,0.0003929261821656817,57.26144257958261,103.13203591852404,-0.0013745859031199625,-0.014554682363062274,-0.00029089746337776344,9.982269507210116e-8,4.868246208421061e-6,-8.48678968348887e-7,5.0269410209217135e-6,1.8416870420210607e-6,2.401770671874798e-7,0.012338293935204726,5.936387996089527,2.7702494729543945,0.3821243959047432,0.31966246079966393,0.1236682735726251,25.0,25.0,25.0,25.0,25.0,25.0,24.0,9.544,0.0,0.0,1.0,1781028008381640727
1781028008493732747,0.0003929366011336688,57.2614430867457,103.13203583011152,-0.0013740623400203698,-0.014554490522010846,-0.0002908724350075392,1.0020095110397097e-7,4.869254526472929e-6,-8.488273524238861e-7,5.025498063012085e-6,1.8416550972139389e-6,2.40368104541018e-7,0.0123209340479234,5.936387598028222,2.7702464365237276,0.38212719115668486,0.3196628033362325,0.12366906223130218,25.0,25.0,25.0,25.0,25.0,25.0,24.0,9.544,0.0,0.0,1.0,1781028008480915626
1781028008593888798,0.00039294705856603173,57.2614435940139,103.13203574168364,-0.0013735389267511486,-0.01455429868436846,-0.0002908473863820393,1.0056243127843132e-7,4.870263188136518e-6,-8.489761026408305e-7,5.024068939766968e-6,1.84162296635951e-6,2.4056449770559437e-7,0.012303573771199157,5.936387199902471,2.770243400043261,0.382129986471139,0.3196631458686009,0.12366985090950032,25.0,25.0,25.0,25.0,25.0,25.0,24.0,9.544,0.0,0.0,1.0,1781028008587194226
1781028008693481464,0.000392957552747841,57.261444101387205,103.13203565324037,-0.001373015661831942,-0.014554106850142577,-0.00029082231696870187,1.009083684455666e-7,4.871268017572406e-6,-8.491261938253645e-7,5.022663225792751e-6,1.8415923759713323e-6,2.407639547343699e-7,0.012286213093437536,5.9363868017100865,2.770240363509702,0.38213278184661054,0.3196634883981818,0.1236706396066492,25.0,25.0,25.0,25.0,25.0,25.0,24.0,9.544,0.0,0.0,1.0,1781028008686078238
1781028008794057111,0.0003929680819994291,57.261444608865666,103.13203556478172,-0.0013724925438351491,-0.01455391501934932,-0.0002907972262357008,1.0123831178038677e-7,4.872273915682045e-6,-8.49276700145858e-7,5.0212728636118975e-6,1.8415625217681945e-6,2.409682168400974e-7,0.012268852005412709,5.936386403446065,2.7702373269218934,0.3821355772839822,0.3196638309242216,0.12367142832283784,25.0,25.0,25.0,25.0,25.0,25.0,24.0,9.544,0.0,0.0,1.0,1781028008786804258
1781028008893747095,0.00039297864469754225,57.261445116449245,103.13203547630768,-0.0013719695712248543,-0.014553723191972052,-0.00029077211370065893,1.0155302911351842e-7,4.873279766128205e-6,-8.49426781370193e-7,5.019893306823964e-6,1.8415320258275824e-6,2.4117731859655536e-7,0.012251490566186823,5.936386005121267,2.7702342902819335,0.382138372783018,0.3196641734470514,0.12367221705848008,25.0,25.0,25.0,25.0,25.0,25.0,24.0,9.544,0.0,0.0,1.0,1781028008881971755
1781028008994099062,0.0003929892392491995,57.261445624138005,103.13203538781826,-0.0013714467426066918,-0.01455353136801758,-0.00029074697886602083,1.018499271498844e-7,4.874295403993333e-6,-8.49569199879075e-7,5.018498730836205e-6,1.841494369262956e-6,2.413981100430211e-7,0.01223412870681492,5.936385606740715,2.770231253588729,0.3821411683400911,0.31966451596700335,0.12367300581193429,25.0,25.0,25.0,25.0,25.0,25.0,24.0,9.544,0.0,0.0,1.0,1781028008991086754
1781028009093503600,0.00039299986411375087,57.261446131931955,103.13203529931349,-0.0013709240563836325,-0.014553339547447955,-0.00029072182129323424,1.0213395148118377e-7,4.875306145050344e-6,-8.497172910178829e-7,5.0171367395903915e-6,1.8414619119074288e-6,2.416186178396846e-7,0.012216766472515343,5.936385208284751,2.7702282168363186,0.38214396395947625,0.3196648584837607,0.1236737945846796,25.0,25.0,25.0,25.0,25.0,25.0,24.0,9.544,0.0,0.0,1.0,1781028009086607754
1781028009193447599,0.000393008384810542,57.26144653824291,103.1320352284986,-0.001370506009010438,-0.014553186093429876,-0.0002907016785472864,1.0234906396728603e-7,4.876122054571249e-6,-8.498303180296891e-7,5.01603768761278e-6,1.8414318420986352e-6,2.418026773082267e-7,0.012202876394646402,5.9363848894757325,2.770225787394321,0.3821462004975067,0.31966513249519146,0.12367442561592926,25.0,25.0,25.0,25.0,25.0,25.0,24.0,9.544,0.0,0.0,1.0,1781028009167882710
1781028009293930062,0.00039302119878886895,57.26144714783564,103.13203512225778,-0.001369879105253892,-0.014552955916378396,-0.00029067143615906904,1.026571318445764e-7,4.877337280436488e-6,-8.500056254577475e-7,5.014430719932619e-6,1.8413917114386823e-6,2.420781200809663e-7,0.012182040812457084,5.936384411181724,2.770222143160464,0.38214955537616,0.3196655435095421,0.12367537218487926,25.0,25.0,25.0,25.0,25.0,25.0,24.0,9.544,0.0,0.0,1.0,1781028009288878549
1781028009393291327,0.00039303190571852054,57.26144765594544,103.13203503370684,-0.001369356837159902,-0.014552764105772914,-0.00029064620780691147,1.0290177460061206e-7,4.878338961415595e-6,-8.501603869581765e-7,5.013144445941403e-6,1.8413670353532788e-6,2.423037018283159e-7,0.012164677403065588,5.936384012514467,2.7702191062308485,0.3821523511758851,0.319665886019886,0.12367616101303008,25.0,25.0,25.0,25.0,25.0,25.0,24.0,9.544,0.0,0.0,1.0,1781028009392935722
1781028009494119972,0.00039304048898617993,57.26144806250916,103.13203496285496,-0.001368939120921501,-0.014552610659619434,-0.00029062600758314293,1.0308800778065905e-7,4.879141461519955e-6,-8.502838156477431e-7,5.01212483014679e-6,1.8413475155476387e-6,2.424869468325908e-7,0.012150786395789022,5.936383693533864,2.7702166766430047,0.38215458785789713,0.3196661600256737,0.12367679208848924,25.0,25.0,25.0,25.0,25.0,25.0,24.0,9.544,0.0,0.0,1.0,1781028009473756682
1781028009595014849,0.0003930533917937389,57.261448672481315,103.13203485655878,-0.0013683127085336504,-0.01455238049423621,-0.0002905956775472149,1.0334785364708632e-7,4.880361619899036e-6,-8.504572268271204e-7,5.0105621807733084e-6,1.8413072899493712e-6,2.42777378318693e-7,0.012129949428285849,5.93638321500017,2.770213032194932,0.3821579429506819,0.3196665710305606,0.12367773872317324,25.0,25.0,25.0,25.0,25.0,25.0,24.0,9.544,0.0,0.0,1.0,1781028009594059273
1781028009694156243,0.0003930641682687057,57.261449180907555,103.13203476796168,-0.0013677908449524457,-0.014552188693192624,-0.00029057037491468727,1.035497231234817e-7,4.881384093974512e-6,-8.505990853566818e-7,5.009264483825002e-6,1.8412724745297487e-6,2.4302553970505666e-7,0.012112584870057676,5.936382816146733,2.7702099950846937,0.38216073892604513,0.31966691353326454,0.12367852760524224,25.0,25.0,25.0,25.0,25.0,25.0,24.0,9.544,0.0,0.0,1.0,1781028009691828103
1781028009793878999,0.0003930728043285835,57.26144958772458,103.13203469707292,-0.001367373448915033,-0.01455203525454273,-0.0002905501145213594,1.037041929922439e-7,4.882194701101352e-6,-8.507176673607926e-7,5.008261254327312e-6,1.8412498259567155e-6,2.432212929973182e-7,0.012098692929767571,5.936382497011236,2.770207565349441,0.3821629757481382,0.3196671875344894,0.12367915872353664,25.0,25.0,25.0,25.0,25.0,25.0,24.0,9.544,0.0,0.0,1.0,1781028009775310955
1781028009893761841,0.00039308578171384984,57.26145019807696,103.1320345907213,-0.001366747511119838,-0.014551805100138392,-0.00029051969305134,1.039223008526857e-7,4.883410141227538e-6,-8.508974948608093e-7,5.006777213131713e-6,1.8412178175532535e-6,2.435174175998147e-7,0.012077854578158943,5.936382018226393,2.770203920671647,0.3821663310526449,0.31966759853271226,0.123680105422835,25.0,25.0,25.0,25.0,25.0,25.0,24.0,9.544,0.0,0.0,1.0,1781028009891002526
1781028009993800858,0.0003930944479252482,57.26145060506319,103.13203451980787,-0.0013663303222528978,-0.01455165166618642,-0.00029049939125788725,1.040587687384667e-7,4.884219022258578e-6,-8.510179200314948e-7,5.005807119669136e-6,1.8411984041773905e-6,2.4371582158001417e-7,0.012063962023165904,5.936381698977634,2.7702014908341797,0.38216856796910514,0.3196678725312581,0.12368073656984026,25.0,25.0,25.0,25.0,25.0,25.0,24.0,9.544,0.0,0.0,1.0,1781028009976749995
1781028010094307134,0.0003931052960734861,57.26145111389129,103.13203443115228,-0.0013658089506301244,-0.014551459876279907,-0.0002904739903412992,1.0421790844110989e-7,4.885237521352756e-6,-8.51163992120646e-7,5.004586027419488e-6,1.841170311536809e-6,2.439707034737609e-7,0.012046596017096126,5.9363812998661345,2.7701984534800954,0.3821713641656376,0.3196682150270031,0.12368152551934372,25.0,25.0,25.0,25.0,25.0,25.0,24.0,9.544,0.0,0.0,1.0,1781028010087459389
1781028010193870547,0.0003931139861799268,57.26145152103007,103.13203436021676,-0.0013653919438768969,-0.014551306446313314,-0.0002904536505035864,1.0433924214818877e-7,4.886045322904042e-6,-8.512879414932599e-7,5.0036470396997745e-6,1.8411544800805072e-6,2.441707283064795e-7,0.012032702913502669,5.93638098051711,2.770196023547345,0.38217360116589594,0.3196684890223639,0.12368215669178312,25.0,25.0,25.0,25.0,25.0,25.0,24.0,9.544,0.0,0.0,1.0,1781028010165635173
1781028010293640694,0.0003931270392963859,57.26145213186558,103.13203425379491,-0.0013647665828673077,-0.014551076304534383,-0.0002904231085712809,1.045048696605724e-7,4.887272731694715e-6,-8.514615328451195e-7,5.002209218077297e-6,1.841121252453417e-6,2.444840610550935e-7,0.012011862836124546,5.936380501428871,2.7701923785722977,0.3821769567335018,0.319668900013115,0.12368310347113072,25.0,25.0,25.0,25.0,25.0,25.0,24.0,9.544,0.0,0.0,1.0,1781028010290650196
1781028010393963466,0.0003931357525304367,57.26145253917424,103.13203418283474,-0.0013643497736852963,-0.01455092287870602,-0.000290402725660263,1.0460769123177477e-7,4.888089258605855e-6,-8.515799882960001e-7,5.001273969864078e-6,1.841102519319851e-6,2.4469249644846186e-7,0.01199796912826913,5.93638018197616,2.770189948533569,0.3821791938249275,0.3196691740062415,0.12368373467123056,25.0,25.0,25.0,25.0,25.0,25.0,24.0,9.544,0.0,0.0,1.0,1781028010380654370
1781028010493812965,0.0003931466556647034,57.26145304840577,103.13203409412068,-0.001363828871220872,-0.014550731098602164,-0.0002903772224835902,1.047262951128759e-7,4.889113979691188e-6,-8.517250047331561e-7,5.0001056395594115e-6,1.8410770204693671e-6,2.449576563333923e-7,0.0119806016817461,5.936379782606742,2.7701869109262462,0.382181990240312,0.3196695164962123,0.12368452368706125,25.0,25.0,25.0,25.0,25.0,25.0,24.0,9.544,0.0,0.0,1.0,1781028010476856967
1781028010593450843,0.00039315757071333026,57.26145355774376,103.13203400539118,-0.0013633080883109364,-0.014550539320801432,-0.00029035169185069056,1.048365879840676e-7,4.89013490565885e-6,-8.51875213225298e-7,4.998973447260587e-6,1.8410576790811197e-6,2.45220396741413e-7,0.01196323383151852,5.936379383156882,2.770183873245757,0.3821847867136948,0.31966985898503114,0.12368531272014144,25.0,25.0,25.0,25.0,25.0,25.0,24.0,9.544,0.0,0.0,1.0,1781028010588528308
1781028010694268906,0.000393168496662484,57.26145406718835,103.1320339166463,-0.0013627874234206246,-0.014550347545197224,-0.0002903261335414604,1.0493552694905077e-7,4.891163436095534e-6,-8.520192369958856e-7,4.997834458217548e-6,1.841034045895791e-6,2.454900765241711e-7,0.011945865615419273,5.936378983649523,2.7701808354995805,0.3821875832429245,0.3196702014727234,0.12368610177021036,25.0,25.0,25.0,25.0,25.0,25.0,24.0,9.544,0.0,0.0,1.0,1781028010681247872
1781028010793499178,0.0003931794325397442,57.261454576739666,103.132033827886,-0.0013622668747800507,-0.014550155771637034,-0.00029030054739245066,1.0502786984119389e-7,4.892181851881269e-6,-8.521713301033406e-7,4.996744520629151e-6,1.84101872765064e-6,2.457541580461523e-7,0.011928497018863875,5.936378584064824,2.770177797680006,0.38219037982908016,0.3196705439599162,0.12368689083735812,25.0,25.0,25.0,25.0,25.0,25.0,24.0,9.544,0.0,0.0,1.0,1781028010783884384
1781028010894164661,0.0003931903773812778,57.261455086397866,103.13203373911033,-0.001361746440893952,-0.014549964000011874,-0.00029027493319799184,1.0511087459062617e-7,4.893204654864613e-6,-8.523230617432022e-7,4.9956640144608405e-6,1.8410042199829728e-6,2.4602086188383084e-7,0.011911128066072769,5.936378184408628,2.7701747597897968,0.3821931764737184,0.3196708864459318,0.1236876799222253,25.0,25.0,25.0,25.0,25.0,25.0,24.0,9.544,0.0,0.0,1.0,1781028010883852801
1781028010993503011,0.0003932013302570195,57.26145559616316,103.13203365031926,-0.001361226120153484,-0.0145497722301935,-0.0002902492907836511,1.0518125914756319e-7,4.894242682222291e-6,-8.524632957786413e-7,4.994555947976711e-6,1.840980809260206e-6,2.462992753563749e-7,0.011893758711971092,5.936377784697757,2.7701717218318658,0.3821959731712265,0.31967122893084116,0.12368846902282034,25.0,25.0,25.0,25.0,25.0,25.0,24.0,9.544,0.0,0.0,1.0,1781028010990119009
1781028011093482378,0.00039321229028152493,57.26145610603559,103.13203356151276,-0.0013607059107305713,-0.014549580461997912,-0.0002902236200392364,1.0524825996082837e-7,4.895262836071867e-6,-8.526184576884638e-7,4.993523687700408e-6,1.840972451466791e-6,2.4656529713085765e-7,0.01187638900029685,5.9363773849002115,2.770168683796794,0.3821987699282904,0.319671571414964,0.1236892581413315,25.0,25.0,25.0,25.0,25.0,25.0,24.0,9.544,0.0,0.0,1.0,1781028011082520202
1781028011194754497,0.0003932244366820467,57.261456471536384,103.13203348049625,-0.001360175084758431,-0.014549449483679436,-0.0002901979500261627,1.234686785176603e-7,8.354491747319412e-7,-5.893080010563179e-7,5.160617949595631e-6,6.024461393757327e-8,2.8585967182571225e-7,0.01185906408110147,5.9363764519905855,2.770165154218847,0.3822016028982343,0.3196721728090009,0.1236900608826472,25.0,25.0,25.0,25.0,25.0,25.0,24.0,9.544,0.0,0.0,1.0,1781028011184949091
1781028011293352515,0.00039323680555753527,57.261456473851254,103.13203342711552,-0.0013596397202442715,-0.014549483364341734,-0.00029016524270531667,1.163938509759071e-7,-2.764847793394572e-7,-4.874591984623581e-7,5.1401810331238265e-6,-4.613727224029263e-7,3.2391560497642733e-7,0.011841646452485234,5.936376533906458,2.770162518479236,0.3822043581043093,0.3196722856182101,0.12369083116540962,25.0,25.0,25.0,25.0,25.0,25.0,24.0,9.544,0.0,0.0,1.0,1781028011288147102
1781028011394025886,0.0003932488738411134,57.261456440172395,103.13203337654116,-0.0013591037017055547,-0.014549533339397824,-0.00029013138771029774,1.1568882001629181e-7,-3.404661481704678e-7,-4.850717165309357e-7,5.149079148187989e-6,-4.86059449230389e-7,3.25300558646175e-7,0.011824271163960476,5.9363761452287385,2.7701594520815354,0.3822071455379898,0.3196726273011552,0.12369161397492044,25.0,25.0,25.0,25.0,25.0,25.0,24.0,9.544,0.0,0.0,1.0,1781028011386201141
1781028011493828302,0.0003932609301998094,57.26145640445562,103.13203332601944,-0.001358567247231002,-0.01454958406601947,-0.0002900974975799076,1.158064875967605e-7,-3.436692089522661e-7,-4.84946203310218e-7,5.150188350767454e-6,-4.87407133776146e-7,3.254046343746933e-7,0.01180689855280249,5.93637573026184,2.7701563620416803,0.3822099350500357,0.3196729813940169,0.12369239756266408,25.0,25.0,25.0,25.0,25.0,25.0,24.0,9.544,0.0,0.0,1.0,1781028011482607311
1781028011593806781,0.00039327300024205825,57.261456368648915,103.13203327550934,-0.0013580308047798737,-0.014549634867428664,-0.0002900635896055293,1.15927431120597e-7,-3.437829893453443e-7,-4.848672872261431e-7,5.149437954928227e-6,-4.879550130894496e-7,3.25632129272274e-7,0.01178952582166733,5.936375313678351,2.7701532706137963,0.3822127247742383,0.31967333615882837,0.12369318122205757,25.0,25.0,25.0,25.0,25.0,25.0,24.0,9.544,0.0,0.0,1.0,1781028011586896658
1781028011693997612,0.0003932850812705334,57.26145633283164,103.13203322500276,-0.0013574944594139631,-0.014549685726072716,-0.000290029655253788,1.1601928398989847e-7,-3.439088482720115e-7,-4.848603757375556e-7,5.14839821999123e-6,-4.885160642351251e-7,3.259050635424681e-7,0.011772152737427231,5.936374896928442,2.7701501790304497,0.3822155145695413,0.3196736909606796,0.1236939649026178,25.0,25.0,25.0,25.0,25.0,25.0,24.0,9.544,0.0,0.0,1.0,1781028011684220903
1781028011794046013,0.0003932971711400898,57.26145629699758,103.13203317449472,-0.0013569582225915673,-0.014549736643165164,-0.00028999569221754,1.1610076140839737e-7,-3.441001895754597e-7,-4.848933561838709e-7,5.147385279499901e-6,-4.890712949715573e-7,3.261761729523307e-7,0.011754779270441778,5.936374480088134,2.770147087356397,0.3822183044228899,0.3196740457649658,0.12369474859979812,25.0,25.0,25.0,25.0,25.0,25.0,24.0,9.544,0.0,0.0,1.0,1781028011794265305
1781028011893237928,0.0003933092686595809,57.26145626114404,103.13203312398372,-0.001356422094786419,-0.01454978761895839,-0.00028996169989758833,1.1616754573894754e-7,-3.442813016363637e-7,-4.849171816729819e-7,5.146314669734251e-6,-4.89640976620305e-7,3.264649640308603e-7,0.01173740542590558,5.936374063187405,2.7701439955970355,0.3822210943302647,0.3196744005714277,0.12369553231252577,25.0,25.0,25.0,25.0,25.0,25.0,24.0,9.544,0.0,0.0,1.0,1781028011892218122
1781028011993689568,0.0003933189516119719,57.26145623244676,103.13203308357252,-0.0013559932698616333,-0.014549828441741514,-0.0002899344848819965,1.1621899374853074e-7,-3.444413324994074e-7,-4.849476889577148e-7,5.1455132039232115e-6,-4.900859376664779e-7,3.266870423580149e-7,0.011723506078082284,5.936373729604085,2.7701415221237355,0.38222332629688943,0.31967468441815977,0.12369615929436276,25.0,25.0,25.0,25.0,25.0,25.0,24.0,9.544,0.0,0.0,1.0,1781028011975543231
1781028012094017911,0.0003933310607962396,57.26145619655718,103.13203303305546,-0.0013554573341177155,-0.01454987952281196,-0.00028990043953410583,1.162747681448915e-7,-3.44633833997338e-7,-4.849806245761463e-7,5.144506301514413e-6,-4.906453966331578e-7,3.269701064133873e-7,0.011706131542482756,5.936373312562074,2.7701384302047622,0.3822261163047753,0.31967503922955304,0.12369694303582036,25.0,25.0,25.0,25.0,25.0,25.0,24.0,9.544,0.0,0.0,1.0,1781028012076222738
1781028012193656577,0.00039334317539298615,57.2614561606477,103.132032982535,-0.0013549215026959554,-0.01454993066213981,-0.0002898663646014347,1.1632318735014488e-7,-3.448231820106329e-7,-4.850128408382911e-7,5.143511227705727e-6,-4.912044915323193e-7,3.272548797074647e-7,0.011688756632652448,5.936372895449567,2.770135338196079,0.38222890636635193,0.3196753940434345,0.12369772679265076,25.0,25.0,25.0,25.0,25.0,25.0,24.0,9.544,0.0,0.0,1.0,1781028012177480993
1781028012293980098,0.00039335529467449153,57.26145612471855,103.13203293201116,-0.0013543857738106773,-0.014549981859547333,-0.0002898322600216398,1.1636475161211883e-7,-3.4501057761217185e-7,-4.850450189118436e-7,5.1425307386535586e-6,-4.91762041430454e-7,3.275404544861801e-7,0.01167138137015372,5.936372478264967,2.770132246098044,0.38223169648318106,0.3196757488597263,0.12369851056546136,25.0,25.0,25.0,25.0,25.0,25.0,24.0,9.544,0.0,0.0,1.0,1781028012277976331
1781028012393586970,0.0003933674179351335,57.26145608876992,103.13203288148397,-0.0013538501457723128,-0.01455003311486667,-0.00028979812572951997,1.1639947184533405e-7,-3.4519585376653765e-7,-4.850764951586558e-7,5.14156716932066e-6,-4.923181443846998e-7,3.2782673863147594e-7,0.011654005708544442,5.936372061005128,2.7701291539104935,0.3822344866545358,0.3196761036785841,0.12369929435364004,25.0,25.0,25.0,25.0,25.0,25.0,24.0,9.544,0.0,0.0,1.0,1781028012380392254
1781028012493341164,0.0003933795444960739,57.26145605280196,103.13203283095338,-0.0013533146167160222,-0.014550084427906064,-0.00028976396169841297,1.1642809628459737e-7,-3.453802697872177e-7,-4.8510880374269e-7,5.140626178864445e-6,-4.928708773300518e-7,3.281121974628219e-7,0.011636629668705082,5.936371643665371,2.7701260616311782,0.382237276881042,0.3196764585003011,0.12370007815749108,25.0,25.0,25.0,25.0,25.0,25.0,24.0,9.544,0.0,0.0,1.0,1781028012479162022
1781028012593826316,0.0003933916736950556,57.26145601681487,103.13203278041942,-0.001352779184899815,-0.01455013579848719,-0.00028972976788999645,1.1645026942216686e-7,-3.455627001049515e-7,-4.851405318147334e-7,5.139699393070409e-6,-4.934229388794125e-7,3.283985342747954e-7,0.011619253258916258,5.936371226254445,2.770122969261117,0.3822400671617446,0.3196768133254264,0.12370086197684424,25.0,25.0,25.0,25.0,25.0,25.0,24.0,9.544,0.0,0.0,1.0,1781028012582283154
1781028012693526463,0.0003934038048990709,57.26145598080882,103.13203272988213,-0.0013522438484600723,-0.014550187226408018,-0.00028969554429990763,1.1646876642245453e-7,-3.457524052360664e-7,-4.851788666010028e-7,5.138818227956909e-6,-4.939667715460503e-7,3.286786637975254e-7,0.011601876471229323,5.936370808763112,2.7701198767973736,0.3822428574968293,0.31967716815324676,0.12370164581159114,25.0,25.0,25.0,25.0,25.0,25.0,24.0,9.544,0.0,0.0,1.0,1781028012679734087
1781028012793884862,0.0003934159374663644,57.26145594478405,103.13203267934152,-0.0013517086058429364,-0.014550238711538172,-0.00028966129086226817,1.1647654776751113e-7,-3.459209575121073e-7,-4.852033421860563e-7,5.137894930743909e-6,-4.945217477453159e-7,3.2897213730752604e-7,0.011584499305923916,5.936370391209607,2.7701167842435197,0.38224564788503546,0.31967752298407887,0.12370242966142247,25.0,25.0,25.0,25.0,25.0,25.0,24.0,9.544,0.0,0.0,1.0,1781028012785582795
1781028012893432880,0.00039342807081645874,57.26145590874067,103.1320326287976,-0.0013511734549906398,-0.0145502902536296,-0.00028962700763190437,1.164825314469105e-7,-3.461038727328128e-7,-4.852389743767413e-7,5.137037862589491e-6,-4.950644269957566e-7,3.292547440618767e-7,0.0115671217668399,5.936369973571906,2.7701136915961757,0.3822484383282526,0.31967787781758117,0.1237032135268263,25.0,25.0,25.0,25.0,25.0,25.0,24.0,9.544,0.0,0.0,1.0,1781028012880590756
1781028012993696892,0.0003934402043545216,57.2614558726789,103.13203257825036,-0.0013506383942877582,-0.014550341852534098,-0.0002895926945764847,1.1648105752382653e-7,-3.462765051441358e-7,-4.85268066184965e-7,5.136172406279242e-6,-4.956107113925049e-7,3.295428306149312e-7,0.011549743856774748,5.9363695558634895,2.770110598856301,0.3822512288254633,0.31967823265451606,0.1237039974075555,25.0,25.0,25.0,25.0,25.0,25.0,24.0,9.544,0.0,0.0,1.0,1781028012986212119
1781028013093977031,0.0003934523375222125,57.26145583659891,103.13203252769983,-0.0013501034218231496,-0.014550393508039244,-0.0002895583517305328,1.1647546951909597e-7,-3.464530707182098e-7,-4.85301166983749e-7,5.1353399420389695e-6,-4.961519631387992e-7,3.2982735119429364e-7,0.011532365571925097,5.936369138079456,2.770107506021535,0.38225401937607273,0.3196785874952033,0.123704781303384,25.0,25.0,25.0,25.0,25.0,25.0,24.0,9.544,0.0,0.0,1.0,1781028013085790386
1781028013193551629,0.00039346446976697554,57.2614558005009,103.13203247714608,-0.0013495685358779763,-0.01455044521997248,-0.0002895239790990167,1.1646376669299361e-7,-3.466233176071409e-7,-4.853313775483936e-7,5.134511552995811e-6,-4.966936761144422e-7,3.301142883643057e-7,0.011514986928580329,5.936368720220949,2.770104413094799,0.3822568099818064,0.31967894233792254,0.12370556521489058,25.0,25.0,25.0,25.0,25.0,25.0,24.0,9.544,0.0,0.0,1.0,1781028013184456856
1781028013293916851,0.0003934766005621753,57.26145576438502,103.13203242658903,-0.0013490337346231589,-0.014550496988135682,-0.0002894895767177983,1.1644621480198397e-7,-3.467893842633917e-7,-4.853587714655274e-7,5.133691956430092e-6,-4.972362087048941e-7,3.304031926289614e-7,0.011497607891159455,5.936368302292018,2.7701013200723783,0.3822596006394326,0.31967929718523963,0.12370634914089966,25.0,25.0,25.0,25.0,25.0,25.0,24.0,9.544,0.0,0.0,1.0,1781028013283152433
1781028013394209242,0.0003934887294009589,57.26145572825143,103.13203237602876,-0.001348499016184852,-0.014550548812322903,-0.00028945514463874704,1.1642525397445185e-7,-3.469590186583251e-7,-4.853903608718705e-7,5.132906533676779e-6,-4.977729701850886e-7,3.306877800162787e-7,0.011480228493315118,5.936367884283349,2.770098226954188,0.3822623913513966,0.3196796520360265,0.12370713308229976,25.0,25.0,25.0,25.0,25.0,25.0,24.0,9.544,0.0,0.0,1.0,1781028013383729688
1781028013494096349,0.0003935008557889788,57.26145569210032,103.13203232546527,-0.0013479643787357738,-0.01455060069233578,-0.00028942068291123475,1.1640215111478001e-7,-3.471371883578873e-7,-4.854288737709491e-7,5.132170170911678e-6,-4.983008048045551e-7,3.3096489429163785e-7,0.011462848704064884,5.936367466193205,2.770095133741651,0.382265182117856,0.3196800068880082,0.12370791703883913,25.0,25.0,25.0,25.0,25.0,25.0,24.0,9.544,0.0,0.0,1.0,1781028013482852851
1781028013593467085,0.00039351297923470986,57.261455655931904,103.1320322748986,-0.0013474298206173063,-0.014550652628012877,-0.0002893861915541842,1.1637071846315368e-7,-3.472983574551432e-7,-4.854564369790461e-7,5.131404991721897e-6,-4.98836863756051e-7,3.312517904133925e-7,0.011445468560780738,5.936367048036157,2.7700920404326306,0.3822679729368514,0.3196803617456041,0.1237087010103456,25.0,25.0,25.0,25.0,25.0,25.0,24.0,9.544,0.0,0.0,1.0,1781028013586923339
1781028013693493265,0.00039352509928479657,57.261455619746314,103.13203222432873,-0.0013468953398964147,-0.014550704619131168,-0.00028935167065455617,1.1633541689039013e-7,-3.474597726798483e-7,-4.85485131544454e-7,5.130662380623566e-6,-4.993699136601611e-7,3.31536813042069e-7,0.011428088046000245,5.93636662980342,2.7700889470287096,0.3822707638099234,0.3196807166062043,0.12370948499704956,25.0,25.0,25.0,25.0,25.0,25.0,24.0,9.544,0.0,0.0,1.0,1781028013683454326
1781028013793803427,0.0003935372154938936,57.26145558354372,103.13203217375568,-0.001346360934730389,-0.014550756665490766,-0.00028931712028609725,1.1629715264647085e-7,-3.476245582061887e-7,-4.855174262737404e-7,5.129953056821503e-6,-4.998974599622681e-7,3.318176409539622e-7,0.011410707147711445,5.936366211491182,2.7700858535270396,0.3822735547363112,0.3196810714698939,0.1237102689985873,25.0,25.0,25.0,25.0,25.0,25.0,24.0,9.544,0.0,0.0,1.0,1781028013791357667
1781028013893659057,0.0003935493274262591,57.26145554732432,103.13203212317948,-0.001345826603351416,-0.01455080876690292,-0.00028928254051302575,1.1625315823261753e-7,-3.4778134185238434e-7,-4.855440367643867e-7,5.129239931124844e-6,-5.004281326234455e-7,3.32102476179558e-7,0.011393325884383724,5.936365793112448,2.7700827599297484,0.38227634571518576,0.3196814263375556,0.1237110530149279,25.0,25.0,25.0,25.0,25.0,25.0,24.0,9.544,0.0,0.0,1.0,1781028013886564364
1781028013993726010,0.0003935590136147164,57.26145551833681,103.13203208271628,-0.001345399190124676,-0.014550850487530402,-0.00028925485558493116,1.1621499627583378e-7,-3.479059446797026e-7,-4.85565677625531e-7,5.128683397190685e-6,-5.0085113311245e-7,3.323296527157285e-7,0.011379420606034278,5.9363654583518795,2.7700802849825843,0.3822785785368102,0.31968171023469655,0.12371168023876476,25.0,25.0,25.0,25.0,25.0,25.0,24.0,9.543,0.0,0.0,1.0,1781028013974387833
1781028014094093401,0.0003935735368166933,57.26145547483571,103.13203202201775,-0.0013447581545009688,-0.014550913134053656,-0.0002892132931221363,1.1615520512776925e-7,-3.480965334601083e-7,-4.856035261010294e-7,5.12789089799556e-6,-5.014779134120942e-7,3.326642756058541e-7,0.011358562241790196,5.93636495611719,2.7700765724423135,0.38228192783368126,0.3196821360835752,0.12371262109251686,25.0,25.0,25.0,25.0,25.0,25.0,24.0,9.543,0.0,0.0,1.0,1781028014091996543
1781028014193791686,0.0003935832146088238,57.26145544582192,103.1320319815496,-0.0013443308522095914,-0.0145509549419719,-0.00028918556150572274,1.1611250032944695e-7,-3.4822338110696365e-7,-4.856285454531936e-7,5.1273785421967426e-6,-5.018938914172872e-7,3.328862451205335e-7,0.011344656366870352,5.93636462123216,2.7700740973368325,0.38228416074108534,0.31968241998649666,0.12371324834032112,25.0,25.0,25.0,25.0,25.0,25.0,24.0,9.543,0.0,0.0,1.0,1781028014177632269
1781028014293444466,0.0003935977243010211,57.26145540228181,103.13203192084364,-0.001343689978607166,-0.014551017718946246,-0.00028914392925014374,1.1604420676979225e-7,-3.484120172873115e-7,-4.856654936166259e-7,5.126629988798253e-6,-5.025161182582728e-7,3.332181295736556e-7,0.011323797118188636,5.936364118817929,2.7700703845622052,0.382287510165368,0.31968284584495976,0.123714189229727,25.0,25.0,25.0,25.0,25.0,25.0,24.0,9.543,0.0,0.0,1.0,1781028014289667283
1781028014394107704,0.0003936098088924524,57.26145536598085,103.13203187025204,-0.0013431559885366054,-0.014551070092560452,-0.0002891092038721897,1.1598047471258675e-7,-3.485550451624387e-7,-4.856878230488345e-7,5.125988373360962e-6,-5.030405396265801e-7,3.335019234525698e-7,0.011306413997421686,5.936363700063506,2.770067290475693,0.3822903014098296,0.3196832007313869,0.12371497332024647,25.0,25.0,25.0,25.0,25.0,25.0,24.0,9.543,0.0,0.0,1.0,1781028014392257641
1781028014493736067,0.0003936218869264471,57.261455329664024,103.13203181965736,-0.0013426220611030585,-0.014551122519978477,-0.00028907444972032007,1.1591648846259357e-7,-3.487080263213719e-7,-4.857184408246471e-7,5.125402305900994e-6,-5.035543515570599e-7,3.337760193423229e-7,0.01128903050793344,5.936363281221629,2.7700641962882995,0.3822930927085701,0.31968355562193396,0.1237157574258855,25.0,25.0,25.0,25.0,25.0,25.0,24.0,9.543,0.0,0.0,1.0,1781028014491988227
1781028014593745350,0.0003936315444117847,57.26145530059927,103.13203177917948,-0.0013421949630110655,-0.014551164500508343,-0.00028904662576867136,1.1586550514012497e-7,-3.4883970345822706e-7,-4.857504049195113e-7,5.1249769644884135e-6,-5.039573271553733e-7,3.3398764720269914e-7,0.011275123448882703,5.936362946088564,2.7700617208673384,0.3822953257864912,0.31968383953602797,0.12371638472120094,25.0,25.0,25.0,25.0,25.0,25.0,24.0,9.543,0.0,0.0,1.0,1781028014575720649
1781028014694185586,0.0003936436097975603,57.261455264254394,103.13203172857943,-0.0013416611438660342,-0.014551217024294604,-0.00028901182009742453,1.157934203375479e-7,-3.489801693918993e-7,-4.857730120412823e-7,5.124390939034908e-6,-5.044749110055081e-7,3.34266686587206e-7,0.011257739298250576,5.9363625271212275,2.7700586265029643,0.38229811717905654,0.31968419443352597,0.12371716885298932,25.0,25.0,25.0,25.0,25.0,25.0,24.0,9.543,0.0,0.0,1.0,1781028014674089329
1781028014793343651,0.0003936556677224423,57.26145522789414,103.1320316779764,-0.0013411273822214196,-0.014551269601306786,-0.00028897698600803144,1.1572166800232735e-7,-3.491323293715648e-7,-4.858053605433742e-7,5.123864398553517e-6,-5.049812424422076e-7,3.345351844273908e-7,0.011240354765772748,5.93636210806704,2.770055532037523,0.3823009086261296,0.31968454933442625,0.1237179529998244,25.0,25.0,25.0,25.0,25.0,25.0,24.0,9.543,0.0,0.0,1.0,1781028014783008851
1781028014893809860,0.0003936677178806597,57.261455191518685,103.13203162737048,-0.0013405936762912484,-0.014551322231351508,-0.0002889421236237361,1.1564525216016905e-7,-3.492756566831806e-7,-4.858317777221434e-7,5.123331474533875e-6,-5.054910700298729e-7,3.348076583161773e-7,0.011222969871864727,5.9363616889447135,2.7700524374722653,0.3823037001250061,0.319684904240285,0.1237187371611386,25.0,25.0,25.0,25.0,25.0,25.0,24.0,9.543,0.0,0.0,1.0,1781028014876821723
1781028014993570830,0.0003936797599840345,57.26145515512819,103.1320315767616,-0.0013400600241894498,-0.014551374914215478,-0.00028890723309428804,1.1556618286882953e-7,-3.494176679933185e-7,-4.858584327820982e-7,5.122817670413652e-6,-5.059983874831727e-7,3.350784152606352e-7,0.011205584608700704,5.936361269746368,2.7700493428063986,0.38230649167628306,0.31968525914937324,0.12371952133695732,25.0,25.0,25.0,25.0,25.0,25.0,24.0,9.543,0.0,0.0,1.0,1781028014981313232
1781028015094274936,0.0003936917937597196,57.26145511872283,103.13203152614985,-0.0013395264240936011,-0.014551427649685544,-0.00028887231456923917,1.1548514904763437e-7,-3.495589807910235e-7,-4.858862795790421e-7,5.122326732643608e-6,-5.065018931546677e-7,3.353462624692849e-7,0.011188198980097082,5.936360850466792,2.7700462480385597,0.3823092832819054,0.31968561406291013,0.123720305527892,25.0,25.0,25.0,25.0,25.0,25.0,24.0,9.543,0.0,0.0,1.0,1781028015078158405
1781028015194278893,0.00039370381894499745,57.26145508230272,103.13203147553516,-0.0013389928740738294,-0.014551480437542823,-0.00028883736821701055,1.1540136418951624e-7,-3.497000990655072e-7,-4.859129268062208e-7,5.121852908782742e-6,-5.070045571617856e-7,3.35613044102042e-7,0.01117081298185086,5.936360431116341,2.7700431531721024,0.38231207493909386,0.3196859689808558,0.12372108973311167,25.0,25.0,25.0,25.0,25.0,25.0,24.0,9.543,0.0,0.0,1.0,1781028015184595168
1781028015294036319,0.0003937158352811739,57.26145504586804,103.13203142491771,-0.0013384593723008388,-0.014551533277578957,-0.00028880239419051904,1.1531676874343185e-7,-3.498456917023468e-7,-4.859454364368748e-7,5.121419640377093e-6,-5.074998717806002e-7,3.358734586844147e-7,0.011153426592689737,5.9363600116818445,2.7700400582023885,0.38231486664975023,0.3196863239022221,0.12372187395293024,25.0,25.0,25.0,25.0,25.0,25.0,24.0,9.543,0.0,0.0,1.0,1781028015281179756
1781028015393878131,0.00039372784252315825,57.26145500941898,103.13203137429744,-0.0013379259170051344,-0.014551586169596576,-0.00028876739264132304,1.1522601820655041e-7,-3.499732409400796e-7,-4.859651001843562e-7,5.120950795283806e-6,-5.080047518558872e-7,3.361437114383526e-7,0.011136039860363165,5.936359592186444,2.7700369631331183,0.3823176584116674,0.31968667882840357,0.12372265818715618,25.0,25.0,25.0,25.0,25.0,25.0,24.0,9.543,0.0,0.0,1.0,1781028015384350256
1781028015493456945,0.0003937398404518209,57.261454972955626,103.1320313236743,-0.0013373925061531196,-0.014551639113342703,-0.00028873236377934414,1.151368091360558e-7,-3.501147669941313e-7,-4.85995270614493e-7,5.120547516544892e-6,-5.08497233005815e-7,3.364017661896986e-7,0.011118652753938486,5.936359172603589,2.7700338679605596,0.3823204502272967,0.3196870337589031,0.12372344243618016,25.0,25.0,25.0,25.0,25.0,25.0,24.0,9.543,0.0,0.0,1.0,1781028015480666363
1781028015594214018,0.00039375182883038894,57.261454936478195,103.13203127304844,-0.0013368591380190475,-0.014551692108635838,-0.00028869730774654356,1.150441040830964e-7,-3.502487658042867e-7,-4.860217235923618e-7,5.120146245318554e-6,-5.089907746591319e-7,3.3666169501261725e-7,0.011101265276878046,5.93635875294465,2.7700307726875377,0.38232324209637214,0.31968738869299884,0.1237242266999268,25.0,25.0,25.0,25.0,25.0,25.0,24.0,9.543,0.0,0.0,1.0,1781028015586999907
1781028015693869831,0.000393763807459815,57.2614548999868,103.1320312224198,-0.0013363258106135832,-0.014551745155231952,-0.0002886622247560191,1.1495041497459416e-7,-3.503860465483334e-7,-4.860504129645203e-7,5.119775220465666e-6,-5.094799984008091e-7,3.369172550641399e-7,0.01108387741544323,5.936358333209825,2.770027677308914,0.382326034016705,0.31968774363253655,0.12372501097771609,25.0,25.0,25.0,25.0,25.0,25.0,24.0,9.543,0.0,0.0,1.0,1781028015683776510
1781028015793438826,0.00039377577612135806,57.261454863481646,103.1320311717885,-0.0013357925222488925,-0.014551798252955458,-0.00028862711495180693,1.1485105474762827e-7,-3.505061451765714e-7,-4.860683691701492e-7,5.119373547713323e-6,-5.099776009783454e-7,3.371816121172004e-7,0.01106648920776172,5.936357913409598,2.7700245818310285,0.3823288259892176,0.3196880985759712,0.12372579527007016,25.0,25.0,25.0,25.0,25.0,25.0,24.0,9.543,0.0,0.0,1.0,1781028015787322320
1781028015894018904,0.00039378773464103734,57.261454826962826,103.13203112115448,-0.001335259270854482,-0.014551851401539247,-0.0002885919785726515,1.1475430317185517e-7,-3.50642185544088e-7,-4.860987613290526e-7,5.119046688832446e-6,-5.104601581900537e-7,3.374314882717443e-7,0.011049100614822224,5.936357493515922,2.770021486248989,0.3823316180163911,0.3196884535227743,0.12372657957730472,25.0,25.0,25.0,25.0,25.0,25.0,24.0,9.543,0.0,0.0,1.0,1781028015886115077
1781028015993764322,0.00039379968283072503,57.26145479043049,103.13203107051775,-0.001334726054602121,-0.01455190460077821,-0.000288556815803138,1.14655919533583e-7,-3.5077816840925714e-7,-4.861288795923851e-7,5.118738144389492e-6,-5.109414519264147e-7,3.376795519399138e-7,0.011031711653858809,5.936357073552758,2.770018390563853,0.3823344100948181,0.31968880847506537,0.12372736389869844,25.0,25.0,25.0,25.0,25.0,25.0,24.0,9.543,0.0,0.0,1.0,1781028015988402968
1781028016093572512,0.0003938116205048955,57.26145475388485,103.13203101987844,-0.0013341928717703585,-0.014551957850485795,-0.00028852162681126546,1.1455217161340561e-7,-3.5089686268477394e-7,-4.861475570177128e-7,5.118400409899475e-6,-5.114305333576824e-7,3.37936046965026e-7,0.011014322328182865,5.93635665352206,2.770015294776388,0.3823372022251067,0.3196891634312989,0.12372814823438376,25.0,25.0,25.0,25.0,25.0,25.0,24.0,9.543,0.0,0.0,1.0,1781028016085700235
1781028016193911815,0.0003938235475114384,57.261454717326,103.1320309692365,-0.001333659720331091,-0.014552011150405005,-0.0002884864118367949,1.1444872693613261e-7,-3.510218606612629e-7,-4.861716748907275e-7,5.118102854540452e-6,-5.11912684665853e-7,3.381854793102808e-7,0.010996932643850791,5.936356233410326,2.7700121988840416,0.3823399944083821,0.3196895183927906,0.123728932584727,25.0,25.0,25.0,25.0,25.0,25.0,24.0,9.543,0.0,0.0,1.0,1781028016187281252
1781028016293511570,0.0003938354636882713,57.26145468075411,103.13203091859198,-0.0013331265984500296,-0.014552064500329653,-0.000288451171076697,1.1434434284600477e-7,-3.511478549319465e-7,-4.861975095807245e-7,5.117832145717219e-6,-5.123908850107269e-7,3.384311557958959e-7,0.010979542581041066,5.936355813218723,2.770009102889162,0.38234278664490257,0.3196898733584058,0.12372971694961096,25.0,25.0,25.0,25.0,25.0,25.0,24.0,9.543,0.0,0.0,1.0,1781028016286638009
1781028016393960511,0.0003938473688903393,57.26145464416933,103.13203086794488,-0.0013325935042616977,-0.01455211790003446,-0.0002884159047454386,1.1423852792868762e-7,-3.512709716868268e-7,-4.862219106415225e-7,5.117575978049688e-6,-5.128672361057104e-7,3.3867523136491976e-7,0.01096215214869368,5.936355392949812,2.770006006789018,0.3823455789339003,0.3196902283286169,0.12373050132888828,25.0,25.0,25.0,25.0,25.0,25.0,24.0,9.543,0.0,0.0,1.0,1781028016393494975
1781028016493527700,0.0003938592629726561,57.26145460757183,103.13203081729532,-0.0013320604359347004,-0.014552171349313754,-0.00028838061304864914,1.1412930895128445e-7,-3.513860013662201e-7,-4.862411172469712e-7,5.1173148540221135e-6,-5.133471586203871e-7,3.389226928786121e-7,0.010944761350251403,5.936354972612795,2.770002910586421,0.3823483712742799,0.31969058330375577,0.12373128572229916,25.0,25.0,25.0,25.0,25.0,25.0,24.0,9.543,0.0,0.0,1.0,1781028016489508244
1781028016593701407,0.00039387114581905487,57.26145457096167,103.1320307666432,-0.0013315273914193111,-0.014552224847903032,-0.00028834529624662415,1.140242294751172e-7,-3.515196152710213e-7,-4.862752496292754e-7,5.117137567255325e-6,-5.138098158181654e-7,3.391532244938606e-7,0.010927370165608756,5.936354552181485,2.769999814276587,0.38235116366930744,0.31969093828164497,0.1237320701305,25.0,25.0,25.0,25.0,25.0,25.0,24.0,9.543,0.0,0.0,1.0,1781028016592996369
1781028016693564886,0.00039388301728976894,57.26145453433907,103.13203071598863,-0.0013309943690269382,-0.0145522783956234,-0.0002883099545215432,1.1391509068247933e-7,-3.5164087170968457e-7,-4.86300135319328e-7,5.11694040014031e-6,-5.14279116152995e-7,3.3938990051988937e-7,0.01090997863844208,5.936354131686659,2.769996717864624,0.38235395611556944,0.3196912932652492,0.12373285455298076,25.0,25.0,25.0,25.0,25.0,25.0,24.0,9.543,0.0,0.0,1.0,1781028016686707466
1781028016793970740,0.00039389487727244413,57.261454497704186,103.13203066533164,-0.0013304613668403617,-0.014552331992242798,-0.0002882745881099027,1.1380347359169437e-7,-3.5175521468453177e-7,-4.863208870607207e-7,5.1167452237922036e-6,-5.147497927342572e-7,3.396280656333215e-7,0.010892586725632931,5.936353711114592,2.769993621346591,0.3823567486139735,0.3196916482545921,0.12373363898962418,25.0,25.0,25.0,25.0,25.0,25.0,24.0,9.543,0.0,0.0,1.0,1781028016792020036
1781028016894259533,0.0003939067256589314,57.261454461057134,103.13203061467225,-0.0013299283830114264,-0.014552385637542516,-0.0002882391972403366,1.136897095488492e-7,-3.5186335368968405e-7,-4.863376758113736e-7,5.116552182513727e-6,-5.15221844111057e-7,3.3986739764808324e-7,0.01087519445632513,5.936353290473797,2.7699905247265093,0.38235954116476306,0.3196920032476153,0.1237344234407058,25.0,25.0,25.0,25.0,25.0,25.0,24.0,9.543,0.0,0.0,1.0,1781028016889209518
1781028016993839904,0.00039391619595335344,57.26145443173083,103.13203057414302,-0.0013295020078430014,-0.014552428588668566,-0.00028821086710463447,1.1360040864605017e-7,-3.519577043028932e-7,-4.863586974862324e-7,5.1164420966000865e-6,-5.155903026608749e-7,3.400502299621877e-7,0.010861280374535228,5.936352953893298,2.7699880473524137,0.38236177524494874,0.3196922872447783,0.12373505101235067,25.0,25.0,25.0,25.0,25.0,25.0,24.0,9.543,0.0,0.0,1.0,1781028016969511202
1781028017093455784,0.0003939303872624455,57.26145438772708,103.13203051334634,-0.001328862462633518,-0.014552493073230222,-0.00028816834312868415,1.1346435616742229e-7,-3.520952451460005e-7,-4.863857676353624e-7,5.11628431973853e-6,-5.161449627140923e-7,3.403250727666931e-7,0.010840408798227976,5.936352448943022,2.7699843311651056,0.3823651264251765,0.3196927132477791,0.1237359923861514,25.0,25.0,25.0,25.0,25.0,25.0,24.0,9.543,0.0,0.0,1.0,1781028017088673054
1781028017193927319,0.0003939398386440952,57.26145435838183,103.13203047281336,-0.001328436109519179,-0.014552536101361384,-0.00028813997479699836,1.1337320340840204e-7,-3.521861862387573e-7,-4.864042239486607e-7,5.116196578560606e-6,-5.165120779275991e-7,3.405057782855802e-7,0.010826494122825409,5.93635211224612,2.7699818536234107,0.3823673605880453,0.3196929972528736,0.12373661998036344,25.0,25.0,25.0,25.0,25.0,25.0,24.0,9.543,0.0,0.0,1.0,1781028017168954458
1781028017293819742,0.00039395164211768424,57.26145432168984,103.13203042214508,-0.0013279031780911014,-0.014552589929555833,-0.0002881044932082067,1.132580518547891e-7,-3.522963793938136e-7,-4.864255822867079e-7,5.116095590780873e-6,-5.169705950569063e-7,3.407310667455654e-7,0.010809100447432014,5.936351691306493,2.7699787566011667,0.38237015333946023,0.31969335226396445,0.12373740448623628,25.0,25.0,25.0,25.0,25.0,25.0,24.0,9.543,0.0,0.0,1.0,1781028017275983944
1781028017394200805,0.00039396343358206993,57.26145428498634,103.13203037147456,-0.0013273702559271508,-0.014552643805334097,-0.00028806898834063405,1.1314285845700365e-7,-3.524077548527112e-7,-4.864484051942827e-7,5.11602065180882e-6,-5.174251052960928e-7,3.409521913081556e-7,0.010791706402225468,5.936351270288047,2.769975659472943,0.3823729461434533,0.3196937072793087,0.1237381890064247,25.0,25.0,25.0,25.0,25.0,25.0,24.0,9.543,0.0,0.0,1.0,1781028017378934691
1781028017493942966,0.00039397756738213905,57.261454240927215,103.132030310667,-0.0013267307590013578,-0.014552708518784822,-0.0002880263521025556,1.1300216654923086e-7,-3.5253351786752346e-7,-4.864707758085012e-7,5.115935305563917e-6,-5.179720247011435e-7,3.4121877397143745e-7,0.010770833050416356,5.936350764970157,2.769971942778609,0.3823762975764477,0.3196941333045893,0.12373913044917972,25.0,25.0,25.0,25.0,25.0,25.0,24.0,9.543,0.0,0.0,1.0,1781028017493772411
1781028017594064782,0.0003939869802045388,57.26145421154547,103.13203027012688,-0.001326304432012819,-0.014552751698774983,-0.00028799790974345197,1.129089501320321e-7,-3.526190669611144e-7,-4.864875161195626e-7,5.115899982785839e-6,-5.183330083693537e-7,3.413924064383337e-7,0.010756917215681889,5.936350428029312,2.76996946489769,0.3823785319084911,0.3196944173252209,0.1237397580897599,25.0,25.0,25.0,25.0,25.0,25.0,24.0,9.543,0.0,0.0,1.0,1781028017585529749
1781028017694179444,0.00039399873524812465,57.26145417480834,103.1320302194498,-0.0013257715264657194,-0.014552805715976268,-0.000287962336533504,1.1279125201637488e-7,-3.527238202661965e-7,-4.865080375174745e-7,5.1158728406859766e-6,-5.187827980837925e-7,3.416080117224979e-7,0.010739522038001449,5.936350006782203,2.7699663674500368,0.3823813248685663,0.3196947723557524,0.12374054265228056,25.0,25.0,25.0,25.0,25.0,25.0,24.0,9.543,0.0,0.0,1.0,1781028017675427142
1781028017794045857,0.00039401047804575216,57.2614541380603,103.13203016877056,-0.001325238622731808,-0.01455285977986834,-0.000287926741055544,1.1267310536485729e-7,-3.528268972254182e-7,-4.865268214927428e-7,5.115860901753386e-6,-5.192307776945552e-7,3.418214207191204e-7,0.01072212651115046,5.936349585459235,2.769963269896571,0.382384117882433,0.3196951273910668,0.12374132722963949,25.0,25.0,25.0,25.0,25.0,25.0,24.0,9.543,0.0,0.0,1.0,1781028017783571509
1781028017894126948,0.000394022208561146,57.26145410130143,103.13203011808923,-0.0013247057188560394,-0.01455291389020948,-0.00028789112359115085,1.1255585412955684e-7,-3.529324924014271e-7,-4.865488470726865e-7,5.115877902744137e-6,-5.196735893586029e-7,3.4202930136194274e-7,0.010704730639011851,5.936349164056912,2.7699601722355567,0.3823869109500226,0.3196954824309977,0.12374211182182536,25.0,25.0,25.0,25.0,25.0,25.0,24.0,9.543,0.0,0.0,1.0,1781028017882542597
1781028017993424906,0.00039403392674803786,57.26145406453191,103.13203006740586,-0.0013241728130322377,-0.014552968046789488,-0.0002878554843864936,1.1243700783987163e-7,-3.53033822819535e-7,-4.865678437157125e-7,5.11590383557164e-6,-5.20117276534e-7,3.422374599084482e-7,0.01068733435286221,5.9363487425832515,2.769957074469863,0.3823897040681979,0.3196958374750406,0.12374289642738694,25.0,25.0,25.0,25.0,25.0,25.0,24.0,9.543,0.0,0.0,1.0,1781028017982732275
1781028018093557584,0.00039404563258054,57.26145402775185,103.13203001672046,-0.0013236399033469918,-0.014553022249371002,-0.0002878198237210734,1.1231871537669437e-7,-3.53135476035989e-7,-4.865885155281975e-7,5.115952984445911e-6,-5.205567291747246e-7,3.424412407448479e-7,0.01066993772802158,5.936348321026054,2.7699539765951724,0.3823924972408694,0.3196961925253219,0.12374368104804571,25.0,25.0,25.0,25.0,25.0,25.0,24.0,9.543,0.0,0.0,1.0,1781028018080795671
1781028018194254985,0.0003940573260347251,57.26145399096138,103.13202996603304,-0.001323106987896397,-0.014553076497721511,-0.0002877841418723284,1.1220145315854102e-7,-3.532418359222488e-7,-4.86612213709706e-7,5.116037848287598e-6,-5.209906744384786e-7,3.426387450105e-7,0.0106525407300397,5.936347899393409,2.7699508786143063,0.38239529046593657,0.3196965475796736,0.12374446568291048,25.0,25.0,25.0,25.0,25.0,25.0,24.0,9.543,0.0,0.0,1.0,1781028018184273135
1781028018293544977,0.0003940690070736164,57.2614539541607,103.13202991534372,-0.0013225740650324,-0.01455313079165742,-0.0002877484390658942,1.1207857984246961e-7,-3.533240739592181e-7,-4.866194590352066e-7,5.11607156227865e-6,-5.214371083415974e-7,3.4284872015806693e-7,0.010635143369176776,5.936347477694715,2.7699477805269663,0.38239808374284695,0.3196969026406444,0.12374525033195852,25.0,25.0,25.0,25.0,25.0,25.0,24.0,9.543,0.0,0.0,1.0,1781028018283381618
1781028018394200329,0.0003940806757136987,57.26145391734982,103.13202986465244,-0.0013220411324575635,-0.014553185130863198,-0.00028771271566908023,1.119629066188747e-7,-3.534361827498962e-7,-4.866491366723286e-7,5.116218433689879e-6,-5.218610750762809e-7,3.430353598383938e-7,0.010617745614578384,5.936347055901415,2.7699446823302805,0.3824008770732473,0.3196972577048436,0.12374603499526712,25.0,25.0,25.0,25.0,25.0,25.0,24.0,9.543,0.0,0.0,1.0,1781028018385577698
1781028018493404954,0.0003940923319149402,57.261453880528975,103.13202981395928,-0.0013215081887059748,-0.01455323951519654,-0.0002876769718727057,1.1184251032127397e-7,-3.535266304538667e-7,-4.866638974183084e-7,5.116321381846343e-6,-5.222959340848197e-7,3.432326857375145e-7,0.010600347505137062,5.936346634043895,2.76994158402816,0.3824036704561662,0.3196976127741324,0.1237468196729853,25.0,25.0,25.0,25.0,25.0,25.0,24.0,9.543,0.0,0.0,1.0,1781028018489031256
1781028018593786501,0.0003941039756909885,57.26145384369827,103.13202976326428,-0.0013209752316874072,-0.01455329394437892,-0.00028764120800841176,1.1172311081696486e-7,-3.53620580011438e-7,-4.866810547856202e-7,5.116455917936512e-6,-5.227256650650894e-7,3.434243202390294e-7,0.010582949026703696,5.936346212105087,2.7699384856166827,0.3824064638917699,0.3196979678492947,0.12374760436500816,25.0,25.0,25.0,25.0,25.0,25.0,24.0,9.543,0.0,0.0,1.0,1781028018588284555
1781028018693466703,0.0003941156070327348,57.261453806857816,103.13202971256746,-0.0013204422596128597,-0.014553348418205133,-0.0002876054243381296,1.1160361442997837e-7,-3.5371279464825716e-7,-4.866981000882699e-7,5.116608298212879e-6,-5.231532620783638e-7,3.4361341754389785e-7,0.010565550166204852,5.936345790090229,2.769935387099125,0.3824092573805313,0.31969832292834677,0.12374838907134617,25.0,25.0,25.0,25.0,25.0,25.0,24.0,9.543,0.0,0.0,1.0,1781028018683457428
1781028018794128170,0.00039412722595223433,57.26145377000772,103.13202966186884,-0.001319909270550088,-0.014553402936431304,-0.0002875696211639665,1.11484515596797e-7,-3.5380572190462045e-7,-4.867147237001132e-7,5.116780137962963e-6,-5.235789168998212e-7,3.437992345286416e-7,0.010548150955612987,5.936345368002934,2.7699322884735627,0.3824120509214808,0.31969867801373336,0.12374917379203114,25.0,25.0,25.0,25.0,25.0,25.0,24.0,9.543,0.0,0.0,1.0,1781028018789335928
1781028018893673119,0.00039413883245356353,57.26145373314819,103.13202961116848,-0.0013193762626942016,-0.014553457498837758,-0.00028753379875915444,1.113652127484265e-7,-3.538955838191002e-7,-4.867310527559808e-7,5.116968237814707e-6,-5.24002194832431e-7,3.439828137567219e-7,0.010530751354722092,5.936344945834801,2.769929189738852,0.3824148445150488,0.3196990331030998,0.1237499585267556,25.0,25.0,25.0,25.0,25.0,25.0,24.0,9.543,0.0,0.0,1.0,1781028018883822487
1781028018994117866,0.00039415042655350255,57.26145369627928,103.13202956046646,-0.001318843234165395,-0.014553512105192548,-0.00028749795741899863,1.1124596672141081e-7,-3.539829738151783e-7,-4.867464992917867e-7,5.11717054320336e-6,-5.244237938211969e-7,3.441641417270879e-7,0.01051335139526488,5.936344523589795,2.7699260908955448,0.3824176381623584,0.3196993881981078,0.12375074327618096,25.0,25.0,25.0,25.0,25.0,25.0,24.0,9.543,0.0,0.0,1.0,1781028018990326075
1781028019093656351,0.0003941620082700618,57.261453659401134,103.13202950976276,-0.0013183101830675943,-0.01455356675526688,-0.00028746209743827364,1.1112750362333849e-7,-3.540720617372891e-7,-4.867634080140337e-7,5.117400393562199e-6,-5.248414437362849e-7,3.4434079185783106e-7,0.010495951053811224,5.93634410126664,2.769922991944789,0.3824204318624805,0.319699743298229,0.12375152803980796,25.0,25.0,25.0,25.0,25.0,25.0,24.0,9.543,0.0,0.0,1.0,1781028019084680640
1781028019193769546,0.0003941735776257258,57.26145362251391,103.1320294590574,-0.00131777710759378,-0.014553621448837328,-0.0002874262191029401,1.1100786212354466e-7,-3.541544919949554e-7,-4.867756308652913e-7,5.117630646294012e-6,-5.252606398365662e-7,3.445184980717224e-7,0.010478550340056255,5.9363436788688135,2.7699198928860196,0.3824232256152048,0.31970009840310376,0.12375231281764722,25.0,25.0,25.0,25.0,25.0,25.0,24.0,9.543,0.0,0.0,1.0,1781028019193384231
1781028019293389135,0.0003941851346572186,57.26145358561768,103.13202940835046,-0.0013172440057388408,-0.014553676185644444,-0.00028739032273899194,1.1089179957396626e-7,-3.542489028616609e-7,-4.867971679470562e-7,5.117918052047046e-6,-5.256690242604686e-7,3.44684458039815e-7,0.01046114926416332,5.936343256387557,2.7699167937168743,0.3824260194217157,0.3197004535134455,0.12375309761012492,25.0,25.0,25.0,25.0,25.0,25.0,24.0,9.543,0.0,0.0,1.0,1781028019285335679
1781028019393752566,0.00039419667938261265,57.26145354871262,103.13202935764198,-0.0013167108758276548,-0.01455373096550036,-0.00028735440860510697,1.1077391363164624e-7,-3.543333174872714e-7,-4.868120382387238e-7,5.1181963402650606e-6,-5.260808937010661e-7,3.4485341404538044e-7,0.010443747823088982,5.936342833831929,2.7699136944404543,0.382428813281356,0.31970080862891515,0.12375388241702066,25.0,25.0,25.0,25.0,25.0,25.0,24.0,9.543,0.0,0.0,1.0,1781028019392024954
1781028019493339702,0.0003942082118421644,57.26145351179883,103.13202930693195,-0.0013161777159133837,-0.014553785788158732,-0.0002873184770168771,1.1065580658797368e-7,-3.544148694608917e-7,-4.868248650451684e-7,5.118486871123502e-6,-5.264923728897007e-7,3.450210285557227e-7,0.010426346001810504,5.93634241120505,2.7699105950562166,0.38243160719306657,0.31970116374967816,0.12375466723793366,25.0,25.0,25.0,25.0,25.0,25.0,24.0,9.543,0.0,0.0,1.0,1781028019488326295
1781028019593981395,0.0003942197320779728,57.26145347487642,103.13202925622048,-0.001315644524129431,-0.014553840653386637,-0.0002872825282813878,1.1053899083086573e-7,-3.544979888599633e-7,-4.868395476322783e-7,5.118805468971925e-6,-5.268988883941254e-7,3.451833336770703e-7,0.01040894380819384,5.936341988496629,2.7699074955614664,0.38243440115841976,0.3197015188749294,0.12375545207331842,25.0,25.0,25.0,25.0,25.0,25.0,24.0,9.543,0.0,0.0,1.0,1781028019591881993
1781028019694129177,0.0003942312401310991,57.26145343794554,103.13202920550754,-0.0013151112986746938,-0.014553895560960402,-0.00028724656269176716,1.1042136558842525e-7,-3.5457529221121265e-7,-4.868500886254776e-7,5.119126486144482e-6,-5.273068808030157e-7,3.453461723954799e-7,0.01039154124090233,5.936341565714999,2.769904395957835,0.38243719517605834,0.3197018740068841,0.1237562369228456,25.0,25.0,25.0,25.0,25.0,25.0,24.0,9.543,0.0,0.0,1.0,1781028019686965076
1781028019794068184,0.0003942427360534305,57.261453401006285,103.13202915479324,-0.001314578037594035,-0.0145539505106359,-0.00028721058057251686,1.103059674331141e-7,-3.546586050718324e-7,-4.86866390406303e-7,5.119486251308882e-6,-5.277079986623242e-7,3.4550131299981785e-7,0.01037413830600702,5.936341142852592,2.769901296245817,0.38243998924794753,0.31970222914281976,0.12375702178705196,25.0,25.0,25.0,25.0,25.0,25.0,24.0,9.543,0.0,0.0,1.0,1781028019792073272
1781028019893807181,0.0003942542198839617,57.26145336405882,103.13202910407756,-0.001314044739200592,-0.014554005502218558,-0.0002871745821946572,1.1018798836949538e-7,-3.547280888189652e-7,-4.868727907133233e-7,5.11982673371661e-6,-5.281150132948601e-7,3.456618672102833e-7,0.010356734997433304,5.936340719919545,2.769898196425649,0.3824427833719272,0.31970258428462284,0.12375780666530135,25.0,25.0,25.0,25.0,25.0,25.0,24.0,9.542,0.0,0.0,1.0,1781028019889017464
1781028019993788737,0.0003942633982898516,57.26145333449497,103.13202906350404,-0.0013136180722377788,-0.014554049525470904,-0.00028714577202511136,1.1009641138535841e-7,-3.5479294854722973e-7,-4.868843163221181e-7,5.120142167327002e-6,-5.284324333874182e-7,3.457814182572296e-7,0.01034281208258197,5.936340381512076,2.7698957164904505,0.3824450187106687,0.3197028684010358,0.12375843457858668,25.0,25.0,25.0,25.0,25.0,25.0,24.0,9.542,0.0,0.0,1.0,1781028019970351248
1781028020093465862,0.0003942771515287735,57.26145329013959,103.13202900264228,-0.0013129780226251405,-0.014554115610080765,-0.0002871025380037001,1.0995963602628685e-7,-3.548876012671259e-7,-4.86901580355846e-7,5.1206341197116546e-6,-5.289060424478617e-7,3.45957556845526e-7,0.010321927263667593,5.936339873805914,2.7698919964552573,0.3824483717826937,0.31970329458249647,0.12375937646576196,25.0,25.0,25.0,25.0,25.0,25.0,24.0,9.542,0.0,0.0,1.0,1781028020091698195
1781028020194784016,0.0003942863108202891,57.261453260563016,103.13202896206676,-0.0013125512887079808,-0.014554159699467502,-0.0002870737030460276,1.098685260867264e-7,-3.549487749444998e-7,-4.869118749472966e-7,5.120972643957043e-6,-5.292211896268242e-7,3.460735792056589e-7,0.01030800375017546,5.936339535275569,2.769889516344312,0.3824506072061237,0.3197035787080285,0.12376000440187096,25.0,25.0,25.0,25.0,25.0,25.0,24.0,9.542,0.0,0.0,1.0,1781028020174497686
1781028020294060178,0.00039430003553873666,57.26145321618883,103.13202890120203,-0.0013119111342205006,-0.0145542258827246,-0.0002870304325946477,1.0973301214371712e-7,-3.550403434923242e-7,-4.869271088300983e-7,5.121502991458336e-6,-5.296907629624994e-7,3.46243363027454e-7,0.010287118042576603,5.936339027389415,2.769885796046071,0.3824539604052894,0.31970400490225576,0.1237609463233874,25.0,25.0,25.0,25.0,25.0,25.0,24.0,9.542,0.0,0.0,1.0,1781028020292293545
1781028020394304039,0.0003943091759184091,57.261453186599915,103.13202886062464,-0.0013114843274844232,-0.014554270037519712,-0.00028700157384203026,1.096410831771601e-7,-3.550926821486513e-7,-4.869311487192503e-7,5.121848294820359e-6,-5.300074814294313e-7,3.463595675395686e-7,0.01027319392028175,5.936338688742146,2.7698833157617524,0.382456195913009,0.319704289036215,0.12376157428211784,25.0,25.0,25.0,25.0,25.0,25.0,24.0,9.542,0.0,0.0,1.0,1781028020378184751
1781028020494009004,0.0003943205908516132,57.26145314960698,103.13202880990188,-0.0013109507756274535,-0.014554325267489574,-0.00028696548744514786,1.095294455494342e-7,-3.551660182898399e-7,-4.869434680627986e-7,5.122323677003154e-6,-5.30394102727389e-7,3.464952210449447e-7,0.010255788462848824,5.936338265353652,2.7698802153039535,0.38245899034811465,0.3197046442080287,0.12376235924440428,25.0,25.0,25.0,25.0,25.0,25.0,24.0,9.542,0.0,0.0,1.0,1781028020475079277
1781028020593587190,0.00039433199413788013,57.2614531126066,103.132028759178,-0.0013104171738167409,-0.014554380537784696,-0.0002869293869411816,1.094180185930778e-7,-3.552375109887953e-7,-4.86953740451516e-7,5.1228129005099385e-6,-5.307800125901632e-7,3.466290048380337e-7,0.010238382608034951,5.936337841891189,2.7698771147389967,0.3824617848357328,0.31970499938457414,0.12376314422061678,25.0,25.0,25.0,25.0,25.0,25.0,24.0,9.542,0.0,0.0,1.0,1781028020580159035
1781028020694296596,0.0003943433858589815,57.261453075598865,103.1320287084531,-0.001309883520166472,-0.014554435848163133,-0.00028689327266102985,1.0930921865996593e-7,-3.553150890455076e-7,-4.869695202533114e-7,5.123342616304036e-6,-5.311586014073674e-7,3.467545804581127e-7,0.010220976385361936,5.936337418345468,2.7698740140621636,0.38246457937773054,0.319705354567016,0.12376392921155022,25.0,25.0,25.0,25.0,25.0,25.0,24.0,9.542,0.0,0.0,1.0,1781028020678198126
1781028020794268664,0.0003943547660764507,57.261453038583994,103.13202865772725,-0.0013093498130797303,-0.014554491198444089,-0.0002868571448727546,1.0919582077537245e-7,-3.553692462987022e-7,-4.869681292032447e-7,5.123820181288463e-6,-5.315501595074029e-7,3.468923178018052e-7,0.010203569801683975,5.936336994738271,2.7698709132772703,0.3824673739722506,0.3197057097555637,0.12376471421677504,25.0,25.0,25.0,25.0,25.0,25.0,24.0,9.542,0.0,0.0,1.0,1781028020783206303
1781028020893383987,0.0003943661348986697,57.26145300156195,103.13202860700036,-0.0013088160503586447,-0.014554546588323926,-0.0002868210039764538,1.090886769825525e-7,-3.554451150163465e-7,-4.869828769185401e-7,5.12438632322309e-6,-5.319241036070912e-7,3.4701143689937514e-7,0.010186162840219224,5.936336571040335,2.769867812379609,0.38247016862084615,0.3197060649488923,0.12376549923646812,25.0,25.0,25.0,25.0,25.0,25.0,24.0,9.542,0.0,0.0,1.0,1781028020879582463
1781028020993712518,0.0003943774923896165,57.26145296453295,103.13202855627262,-0.0013082822304771233,-0.01455460201763808,-0.0002867848502294563,1.0897939012018529e-7,-3.5550734745017297e-7,-4.869887768400974e-7,5.124931679896453e-6,-5.323041003846475e-7,3.47135899196028e-7,0.010168755495422585,5.9363361472709055,2.7698647113732657,0.3824729633230105,0.3197064201475699,0.12376628427053434,25.0,25.0,25.0,25.0,25.0,25.0,24.0,9.542,0.0,0.0,1.0,1781028020983447380
1781028021093423018,0.0003943888386478135,57.261452927497075,103.132028505544,-0.0013077483514882498,-0.014554657486127182,-0.0002867486839833807,1.0887164786438149e-7,-3.5557202988173245e-7,-4.86996776047326e-7,5.125505190373761e-6,-5.326798124476036e-7,3.472551165724269e-7,0.01015134777310843,5.936335723423817,2.7698616102567097,0.3824757580786328,0.3197067753516964,0.1237670693189523,25.0,25.0,25.0,25.0,25.0,25.0,24.0,9.542,0.0,0.0,1.0,1781028021082317160
1781028021193974836,0.00039440017376263215,57.26145289045444,103.1320284548145,-0.0013072144115558616,-0.01455471299356295,-0.0002867125055634792,1.0876574011151859e-7,-3.5563925855852313e-7,-4.870057912911337e-7,5.12610554330964e-6,-5.330510922853118e-7,3.473688151118416e-7,0.010133939689651277,5.9363352994964655,2.7698585090302306,0.38247855288918686,0.31970713056090505,0.12376785438227156,25.0,25.0,25.0,25.0,25.0,25.0,24.0,9.542,0.0,0.0,1.0,1781028021187500238
1781028021294219061,0.000394411497823648,57.261452853405146,103.13202840408424,-0.001306680408910889,-0.014554768539728697,-0.00028667631528437134,1.0866040786201045e-7,-3.557039845602263e-7,-4.870139581198448e-7,5.12672134424872e-6,-5.334208054125335e-7,3.474801062609979e-7,0.010116531209359767,5.936334875492533,2.7698554076934716,0.3824813477527096,0.3197074857751226,0.1237686394596344,25.0,25.0,25.0,25.0,25.0,25.0,24.0,9.542,0.0,0.0,1.0,1781028021282499766
1781028021393970758,0.0003944205491814744,57.261452823761005,103.13202836349949,-0.0013062531604092385,-0.01455481300438836,-0.00028664735474808,1.0857683056303937e-7,-3.5575510221978146e-7,-4.870202844783865e-7,5.1272257443031014e-6,-5.337149448232164e-7,3.475668746809097e-7,0.010102604165675284,5.936334536233349,2.7698529265435226,0.3824835836827821,0.3197077699505497,0.12376926753218528,25.0,25.0,25.0,25.0,25.0,25.0,24.0,9.542,0.0,0.0,1.0,1781028021367951389
1781028021494081893,0.0003944341131775547,57.26145277928705,103.13202830262156,-0.001305612208185877,-0.01455487974732448,-0.0002866039004707293,1.0845193572492693e-7,-3.5582805991087613e-7,-4.870277162229448e-7,5.127995427882982e-6,-5.341555668590088e-7,3.476951022220129e-7,0.010081713151212215,5.936334027254374,2.769849204687218,0.38248693764230746,0.31970819622120317,0.12377020965835484,25.0,25.0,25.0,25.0,25.0,25.0,24.0,9.542,0.0,0.0,1.0,1781028021488862676
1781028021594263196,0.0003944431472224174,57.26145274963269,103.13202826203572,-0.001305184852403668,-0.014554924273079936,-0.0002865749222125231,1.0836888383246834e-7,-3.558730730058824e-7,-4.870303269241044e-7,5.128515200519255e-6,-5.344488901367205e-7,3.4777968022435437e-7,0.010067785497488591,5.93633368787353,2.7698467233598647,0.3824891736579712,0.3197084804058133,0.12377083775383065,25.0,25.0,25.0,25.0,25.0,25.0,24.0,9.542,0.0,0.0,1.0,1781028021569506735
1781028021693541999,0.0003944566855008365,57.261452705143654,103.13202820115627,-0.001304543734823737,-0.014554991107092272,-0.00028653144216285155,1.082480418285828e-7,-3.559498616605315e-7,-4.870418798702559e-7,5.1293477203303255e-6,-5.348792944616148e-7,3.478955840610705e-7,0.010046893578496618,5.936333178702809,2.769843001237561,0.3824925277481089,0.3197089066881011,0.12377177991505484,25.0,25.0,25.0,25.0,25.0,25.0,24.0,9.542,0.0,0.0,1.0,1781028021685418750
1781028021794164758,0.00039446570256796354,57.26145267547941,103.13202816056948,-0.0013041162659103095,-0.014555035693199462,-0.0002865024472526211,1.0816740652716201e-7,-3.559967605876306e-7,-4.870457126492734e-7,5.129903271225189e-6,-5.351675167422778e-7,3.479730856596477e-7,0.010032965344637726,5.93633283920039,2.7698405197341907,0.3824947638508639,0.3197091908810772,0.12377240803412969,25.0,25.0,25.0,25.0,25.0,25.0,24.0,9.542,0.0,0.0,1.0,1781028021766818644
1781028021893498977,0.0003944792156237511,57.261452630975825,103.13202809968872,-0.001303474974457945,-0.014555102617226343,-0.00028645894298863034,1.0804537899015501e-7,-3.560566419047309e-7,-4.87045054104206e-7,5.130731278857255e-6,-5.35603097274322e-7,3.480916081846293e-7,0.01001207252034128,5.936332329856718,2.7698367973467732,0.3824981180691419,0.31970961717792595,0.12377335022979433,25.0,25.0,25.0,25.0,25.0,25.0,24.0,9.542,0.0,0.0,1.0,1781028021886718174
1781028021993891017,0.0003944882160549792,57.26145260130202,103.13202805910112,-0.001303047386636121,-0.014555147262958574,-0.0002864299324880256,1.0796834457980735e-7,-3.561092909638989e-7,-4.870543226045334e-7,5.131340268536763e-6,-5.358817806288889e-7,3.4815836144886314e-7,0.00999814367100584,5.9363319902200375,2.769834315665372,0.3825003542596294,0.319709901378524,0.1237739783722762,25.0,25.0,25.0,25.0,25.0,25.0,24.0,9.542,0.0,0.0,1.0,1781028021967263833
1781028022093387559,0.0003945017044188806,57.26145255678437,103.13202799821929,-0.0013024059125645224,-0.01455521427588836,-0.0002863864056249607,1.0785011091651354e-7,-3.561718787992806e-7,-4.870562716239436e-7,5.132224195825339e-6,-5.363090219666967e-7,3.48265938236232e-7,0.009977249948029811,5.936331480690213,2.769830593011562,0.3825037086083697,0.31971032768784735,0.12377492060301327,25.0,25.0,25.0,25.0,25.0,25.0,24.0,9.542,0.0,0.0,1.0,1781028022089387227
1781028022194674836,0.0003945064564810234,57.261452834578215,103.13202803725562,-0.0013020794087314814,-0.014555225497414278,-0.0002863228314642164,1.6894471910003124e-8,4.026056660524197e-6,1.3961994889189128e-7,4.584292721898909e-6,4.4321839122595235e-7,7.409614635239523e-7,0.00996321375576574,5.93633117878628,2.769828243296508,0.3825059574001093,0.3197105451544553,0.12377555106633184,25.0,25.0,25.0,25.0,25.0,25.0,24.0,9.542,0.0,0.0,1.0,1781028022169962279
1781028022293947687,0.0003945064754701021,57.26145322334872,103.13202801052262,-0.0013015349318740211,-0.014555150565387828,-0.00028625485965067074,-5.455344760764897e-9,3.6001593645268535e-6,-4.226703739993551e-7,5.501751565372267e-6,8.332897279299881e-7,6.127564861186203e-7,0.009945808343067623,5.936330724789122,2.769825071556486,0.38250873090510046,0.3197109494421118,0.1237763305481298,25.0,25.0,25.0,25.0,25.0,25.0,24.0,9.542,0.0,0.0,1.0,1781028022279748946
1781028022393888929,0.000394506019229384,57.26145359687291,103.1320279638956,-0.0013009563360907317,-0.014555061553464938,-0.0002861919553766077,-2.9406349093593513e-9,3.5851581007704426e-6,-4.547234153898047e-7,5.574841679098138e-6,8.626965672595732e-7,6.000132268219106e-7,0.009928416021680968,5.936330309276942,2.7698219897376135,0.38251152247632014,0.31971130175458323,0.12377711519394342,25.0,25.0,25.0,25.0,25.0,25.0,24.0,9.542,0.0,0.0,1.0,1781028022378026910
1781028022493568775,0.0003945058650876886,57.261453970719934,103.13202791660017,-0.001300375300192803,-0.014554971548102726,-0.0002861295648214731,-2.54946905262763e-10,3.591782065579863e-6,-4.531707109098238e-7,5.5788871016443335e-6,8.645628060356319e-7,5.983514584693694e-7,0.00991102598383976,5.9363298912146645,2.769818911765409,0.38251431595260754,0.3197116513082665,0.12377790041389522,25.0,25.0,25.0,25.0,25.0,25.0,24.0,9.542,0.0,0.0,1.0,1781028022475570218
1781028022593929094,0.00039450595877758496,57.26145434505144,103.13202786945416,-0.0012997941783940035,-0.014554881476222236,-0.00028606727455433856,1.9194777551289075e-9,3.594886271064446e-6,-4.52249585780973e-7,5.578571169961098e-6,8.647787684189802e-7,5.976892319321963e-7,0.009893635546230423,5.936329472954594,2.7698158341537464,0.38251710967478386,0.31971200061948746,0.12377868570832776,25.0,25.0,25.0,25.0,25.0,25.0,24.0,9.542,0.0,0.0,1.0,1781028022578502499
1781028022693475282,0.0003945062677243651,57.26145471962429,103.1320278223624,-0.001299213104284276,-0.014554791386133937,-0.00028600504481351085,3.91668997187251e-9,3.596744312893199e-6,-4.519770671895138e-7,5.578092791075173e-6,8.649501436681164e-7,5.971474005814486e-7,0.009876244590533068,5.936329054656883,2.769812756614213,0.38251990350231097,0.3197123498929653,0.12377947103691424,25.0,25.0,25.0,25.0,25.0,25.0,24.0,9.542,0.0,0.0,1.0,1781028022682214800
1781028022793581593,0.0003945067802218948,57.26145509437176,103.1320277752883,-0.0012986320785375587,-0.01455470127767708,-0.00028594286963457314,5.837469887708548e-9,3.5983200263065136e-6,-4.518647394491719e-7,5.577638362675673e-6,8.651283589753652e-7,5.966371433172299e-7,0.0098588531340987,5.936328636312448,2.769809679109692,0.3825226974220534,0.3197126991506618,0.12378025639619657,25.0,25.0,25.0,25.0,25.0,25.0,24.0,9.542,0.0,0.0,1.0,1781028022785526315
1781028022894289026,0.0003945074897965492,57.26145546927913,103.1320277282236,-0.0012980510988263463,-0.014554611150645849,-0.00028588074652867847,7.704706584928916e-9,3.599829859765559e-6,-4.517871160740202e-7,5.577209520416615e-6,8.653066576122148e-7,5.961453195136436e-7,0.009841461154098997,5.936328217914288,2.76980660163405,0.3825254914323446,0.31971304839272646,0.1237810417853903,25.0,25.0,25.0,25.0,25.0,25.0,24.0,9.542,0.0,0.0,1.0,1781028022880362651
1781028022996739362,0.000394508391144479,57.2614558443427,103.13202768116668,-0.0012974701640093118,-0.014554521005505016,-0.0002858186734716111,9.521892871655736e-9,3.6013234131967232e-6,-4.517134074088116e-7,5.576775652279565e-6,8.654763338685978e-7,5.956752978746706e-7,0.009824068672687968,5.936327799464309,2.7698035241833976,0.3825282855321594,0.3197133976222016,0.12378182720431484,25.0,25.0,25.0,25.0,25.0,25.0,24.0,9.542,0.0,0.0,1.0,1781028022993003477
1781028023093892204,0.00039450947927547947,57.26145621956091,103.1320276341172,-0.0012968892731974567,-0.014554430842874683,-0.00028575664855299816,1.1291519324095272e-8,3.6028063706171487e-6,-4.516393929885186e-7,5.576343915359526e-6,8.656383629883055e-7,5.952246379784082e-7,0.009806675684713152,5.936327380962014,2.7698004467548945,0.382531079719931,0.31971374683907455,0.12378261265233471,25.0,25.0,25.0,25.0,25.0,25.0,24.0,9.542,0.0,0.0,1.0,1781028023086022001
1781028023194137251,0.0003945104810206919,57.261456519846,103.13202759648286,-0.0012964245915867605,-0.01455435870059059,-0.0002857070620556736,1.2676340935985705e-8,3.603975851077867e-6,-4.5158723008948e-7,5.576031574341213e-6,8.65769277663273e-7,5.948707342680148e-7,0.009792760927728137,5.936327046116332,2.7697979848272065,0.3825333151334456,0.31971402620192163,0.1237832410315106,25.0,25.0,25.0,25.0,25.0,25.0,24.0,9.542,0.0,0.0,1.0,1781028023166035021
1781028023293475460,0.0003945121966960439,57.26145697045665,103.13202754004008,-0.0012957276202240906,-0.014554250467685015,-0.0002856327358192339,1.4697331759136546e-8,3.605730043021943e-6,-4.515025081874223e-7,5.575539376407411e-6,8.659519679395205e-7,5.943675389137511e-7,0.0097718881913432,5.936326543787524,2.769794291953285,0.3825366683571059,0.31971444523176096,0.12378418363432916,25.0,25.0,25.0,25.0,25.0,25.0,24.0,9.542,0.0,0.0,1.0,1781028023287543688
1781028023393987422,0.00039451347909133,57.26145727098491,103.13202750241732,-0.0012952630059061766,-0.014554178299860537,-0.0002855832193954489,1.6010942602891223e-8,3.606885692372592e-6,-4.514499444755972e-7,5.575234501514473e-6,8.660724442339728e-7,5.940416320802021e-7,0.00975797264835651,5.936326208853292,2.7697918300493787,0.38253890390941214,0.3197147245757863,0.12378481205919648,25.0,25.0,25.0,25.0,25.0,25.0,24.0,9.542,0.0,0.0,1.0,1781028023376066071
1781028023494269858,0.0003945152339667917,57.2614576467807,103.13202745539532,-0.0012946822747810487,-0.01455408807652606,-0.00028552136100884115,1.7612881059111265e-8,3.608328017529075e-6,-4.513793062548649e-7,5.5748395500444625e-6,8.66213013220218e-7,5.936535487342148e-7,0.009740577767734983,5.9363257901415665,2.7697887526784295,0.3825416984245488,0.31971507374547853,0.12378559761477104,25.0,25.0,25.0,25.0,25.0,25.0,24.0,9.542,0.0,0.0,1.0,1781028023478315053
1781028023594268498,0.0003945171535125507,57.261458022726,103.13202740838044,-0.0012941015836166064,-0.01455399783866314,-0.000285459542370245,1.9174279690141776e-8,3.6097575503061335e-6,-4.5131254386245466e-7,5.574463663183587e-6,8.663508658260164e-7,5.932784283949765e-7,0.009723182407697137,5.936325371371322,2.769785675314332,0.3825444930246278,0.3197154229030685,0.12378638319813882,25.0,25.0,25.0,25.0,25.0,25.0,24.0,9.542,0.0,0.0,1.0,1781028023581432916
1781028023693958771,0.00039451923343937647,57.26145839881985,103.13202736137264,-0.0012935209315540048,-0.01455390758685151,-0.00028539776186697056,2.0695799566818872e-8,3.611173031101032e-6,-4.512487385505755e-7,5.574109159059441e-6,8.664856347477748e-7,5.929159145810111e-7,0.009705786557987506,5.936324952541091,2.7697825979579043,0.3825472877087501,0.31971577205023466,0.1237871688088766,25.0,25.0,25.0,25.0,25.0,25.0,24.0,9.542,0.0,0.0,1.0,1781028023679084672
1781028023793596255,0.0003945214695570198,57.26145877506128,103.13202731437192,-0.0012929403178619317,-0.01455381732168763,-0.00028533601790589234,2.2173292515925482e-8,3.612598385734785e-6,-4.511720692971794e-7,5.573705953604514e-6,8.666029310870058e-7,5.925806481748321e-7,0.009688390235762971,5.936324533665859,2.7697795206042395,0.382550082474373,0.3197161211872834,0.12378795444630296,25.0,25.0,25.0,25.0,25.0,25.0,24.0,9.542,0.0,0.0,1.0,1781028023783523731
1781028023893945009,0.0003945238578074462,57.26145915144925,103.13202726737816,-0.001292359741306128,-0.014553727043648369,-0.0002852743090384146,2.3617873678436293e-8,3.613990229459124e-6,-4.511130061245805e-7,5.573386844892696e-6,8.667314047491519e-7,5.922432908812459e-7,0.00967099341387793,5.936324114715169,2.769776443249787,0.38255287732352405,0.3197164703125863,0.12378874011054466,25.0,25.0,25.0,25.0,25.0,25.0,24.0,9.542,0.0,0.0,1.0,1781028023881033082
1781028023993724654,0.0003945263941892426,57.26145952798292,103.1320272203914,-0.0012917792012639377,-0.014553636753331631,-0.0002852126337288539,2.5021385677035863e-8,3.6153861672690033e-6,-4.51044688919839e-7,5.573035390358884e-6,8.668457313595949e-7,5.919290259637699e-7,0.009653596122117525,5.936323695714698,2.769773365894376,0.3825556722532333,0.31971681942887714,0.1237895258010088,25.0,25.0,25.0,25.0,25.0,25.0,24.0,9.542,0.0,0.0,1.0,1781028023989847126
1781028024094105094,0.0003945290748270874,57.26145990466128,103.13202717341156,-0.0012911986967562906,-0.014553546451244206,-0.0002851509905625774,2.638500053680628e-8,3.6167859433664097e-6,-4.509671724260006e-7,5.572652425991998e-6,8.669459725039213e-7,5.91637165832839e-7,0.009636198363157308,5.93632327666777,2.769770288534721,0.3825584672619003,0.31971716853714893,0.1237903115171661,25.0,25.0,25.0,25.0,25.0,25.0,24.0,9.542,0.0,0.0,1.0,1781028024082297139
1781028024194428602,0.0003945318959511328,57.26146028148335,103.1320271264386,-0.0012906182265607262,-0.014553456137838323,-0.0002850893782093401,2.7719211500889684e-8,3.6181500540145535e-6,-4.509091158618803e-7,5.572361339214569e-6,8.670598264102485e-7,5.913400609295781e-7,0.009618800129472915,5.9363228575423195,2.7697672111670246,0.382561262352921,0.3197175176333605,0.12379109725965733,25.0,25.0,25.0,25.0,25.0,25.0,24.0,9.542,0.0,0.0,1.0,1781028024187199761
1781028024293396206,0.0003945348538397381,57.261460658448335,103.13202707947258,-0.0012900377900996105,-0.014553365813685827,-0.0002850277952428753,2.9013950240794945e-8,3.619524311445712e-6,-4.508391486764538e-7,5.572022898160564e-6,8.671568689838681e-7,5.91068157173466e-7,0.009601401427295283,5.93632243836922,2.76976413379099,0.38256405752212586,0.31971786672160946,0.12379188302739393,25.0,25.0,25.0,25.0,25.0,25.0,24.0,9.542,0.0,0.0,1.0,1781028024283338019
1781028024394063435,0.0003945379449118402,57.26146103555522,103.13202703251336,-0.0012894573861044216,-0.014553275479205192,-0.0002849662404222641,3.0277236220762365e-8,3.6208775559431017e-6,-4.507771669118403e-7,5.571730668981239e-6,8.672568138854611e-7,5.908006777878897e-7,0.00958400224898405,5.936322019127291,2.7697610564034645,0.3825668527702857,0.3197182158015083,0.12379266882035687,25.0,25.0,25.0,25.0,25.0,25.0,24.0,9.542,0.0,0.0,1.0,1781028024385875136
1781028024494214687,0.0003945411656392407,57.261461412803186,103.13202698556096,-0.0012888770137296985,-0.014553185134897418,-0.0002849047124494906,3.1506054175561576e-8,3.6222273517268458e-6,-4.50711598700267e-7,5.57143072909394e-6,8.673487942828919e-7,5.905487180644756e-7,0.009566602626956851,5.93632159983271,2.769757979001929,0.3825696480959395,0.3197185648729284,0.12379345463832568,25.0,25.0,25.0,25.0,25.0,25.0,24.0,9.542,0.0,0.0,1.0,1781028024489038077
1781028024593774261,0.0003945445125978929,57.26146179019133,103.13202693861535,-0.0012882966719893543,-0.014553094781213022,-0.00028484321010118456,3.270271514778389e-8,3.6235680494832577e-6,-4.506471989853478e-7,5.571145952934762e-6,8.674378860164656e-7,5.903072591915999e-7,0.009549202515545294,5.936321180473787,2.7697549015845113,0.3825724434990808,0.3197189139351123,0.12379424048080229,25.0,25.0,25.0,25.0,25.0,25.0,24.0,9.542,0.0,0.0,1.0,1781028024589026389
1781028024693851548,0.00039454798244232224,57.26146216771878,103.13202689167652,-0.0012877163598362894,-0.014553004418599044,-0.0002847817321906531,3.386614749860438e-8,3.6249056283068753e-6,-4.5057934952287044e-7,5.570854106262563e-6,8.675187530817845e-7,5.900809273955334e-7,0.009531801960028183,5.936320761056443,2.769751824149507,0.3825752389783202,0.3197192629908915,0.1237950263476872,25.0,25.0,25.0,25.0,25.0,25.0,24.0,9.542,0.0,0.0,1.0,1781028024688852989
1781028024794080345,0.0003945508445990895,57.261462469840474,103.13202685413034,-0.0012872521307674765,-0.01455293212237225,-0.0002847325666756844,3.47749422003027e-8,3.6259685290893583e-6,-4.505258010620857e-7,5.570631789303733e-6,8.675814419981991e-7,5.899067484004773e-7,0.009517881179934838,5.936320425478831,2.769749362186483,0.38257747541673026,0.3197195422301374,0.12379565505866026,25.0,25.0,25.0,25.0,25.0,25.0,24.0,9.542,0.0,0.0,1.0,1781028024783100495
1781028024893694792,0.0003945545274793738,57.26146284761652,103.13202680720366,-0.0012866718692747126,-0.014552841744751731,-0.0002846711298837283,3.5885775382635976e-8,3.6272820897898744e-6,-4.504656789356084e-7,5.570387197707184e-6,8.676620694025883e-7,5.896929662035008e-7,0.00950047980599614,5.936320005942173,2.7697462847120025,0.38258027103419007,0.31971989127189404,0.12379644096941264,25.0,25.0,25.0,25.0,25.0,25.0,24.0,9.542,0.0,0.0,1.0,1781028024874831115
1781028024996738445,0.0003945583243111993,57.261463225529496,103.13202676028368,-0.001286091634549067,-0.01455275135939554,-0.00028460971437982386,3.69640264130485e-8,3.6285989238647e-6,-4.503959948197427e-7,5.570114975993637e-6,8.677297821138326e-7,5.894979690430777e-7,0.009483077982268825,5.936319586356654,2.7697432072160924,0.38258306672479536,0.31972024030760254,0.12379722690347313,25.0,25.0,25.0,25.0,25.0,25.0,24.0,9.542,0.0,0.0,1.0,1781028024976150106
1781028025094224400,0.0003945622320679831,57.261463603578555,103.1320267133704,-0.0012855114254172117,-0.014552660966673653,-0.0002845483191422881,3.8017768353096545e-8,3.629890296175971e-6,-4.5033995697410075e-7,5.569909139780653e-6,8.678063697696169e-7,5.893005599071483e-7,0.009465675682781753,5.936319166694128,2.769740129692752,0.3825858624913479,0.3197205893350505,0.12379801286123704,25.0,25.0,25.0,25.0,25.0,25.0,24.0,9.542,0.0,0.0,1.0,1781028025076028141
1781028025198531301,0.00039456624777296106,57.26146398176289,103.1320266664638,-0.0012849312409185984,-0.014552570567005626,-0.0002844869431237283,3.904299001083507e-8,3.631176263468845e-6,-4.5028299818180657e-7,5.569705604285493e-6,8.67877829593199e-7,5.891142234619607e-7,0.009448272956292046,5.9363187469711445,2.769737052141541,0.3825886583323096,0.3197209383559086,0.12379879884263188,25.0,25.0,25.0,25.0,25.0,25.0,24.0,9.542,0.0,0.0,1.0,1781028025179318260
1781028025299354012,0.00039457036852393545,57.261464360081746,103.13202661956394,-0.0012843510801475145,-0.014552480160804722,-0.00028442558530225956,4.003363288928544e-8,3.632482190319034e-6,-4.50205159227789e-7,5.569425768377618e-6,8.679255822377428e-7,5.889569272196042e-7,0.009430869777162898,5.936318327205747,2.769733974564192,0.38259145424351304,0.3197212873730409,0.1237995848462725,25.0,25.0,25.0,25.0,25.0,25.0,24.0,9.542,0.0,0.0,1.0,1781028025279743574
1781028025399981175,0.0003945745915296342,57.261464738534215,103.13202657267068,-0.0012837709416914488,-0.014552389748366406,-0.00028436424479818325,4.100483907815831e-8,3.6337524411472952e-6,-4.5014842538965913e-7,5.569243068734225e-6,8.679900806203247e-7,5.887887786175678e-7,0.009413466165695678,5.936317907354552,2.7697308969523067,0.38259425023150473,0.31972163638197926,0.123800370873929,25.0,25.0,25.0,25.0,25.0,25.0,24.0,9.542,0.0,0.0,1.0,1781028025377373500
1781028025499951698,0.0003945789140197787,57.26146511711958,103.13202652578406,-0.0012831908247173515,-0.014552299330110676,-0.00028430292062927204,4.1947768877978745e-8,3.63502311777212e-6,-4.5008526949331206e-7,5.569047850478662e-6,8.68045565761699e-7,5.886349631052238e-7,0.009396062091095291,5.936317487446006,2.76972781930808,0.3825970462904209,0.3197219853856172,0.12380115692370738,25.0,25.0,25.0,25.0,25.0,25.0,24.0,9.542,0.0,0.0,1.0,1781028025479820995
1781028025599457944,0.0003945833333189026,57.26146549583702,103.1320264789041,-0.001282610728057649,-0.014552208906376882,-0.00028424161191736895,4.286504124568216e-8,3.636287450265035e-6,-4.500217177223466e-7,5.5688559847274875e-6,8.680961432074193e-7,5.884908358683814e-7,0.009378657591986654,5.93631706747879,2.769724741629355,0.3825998424208651,0.31972233438334957,0.12380194299600548,25.0,25.0,25.0,25.0,25.0,25.0,24.0,9.542,0.0,0.0,1.0,1781028025584038586
1781028025700067068,0.00039458784680381864,57.26146587468583,103.1320264320308,-0.0012820306507619478,-0.014552118477534048,-0.0002841803177658822,4.375429178984206e-8,3.637557811205443e-6,-4.499489217084129e-7,5.568637424293566e-6,8.681355364364342e-7,5.883633689830209e-7,0.009361252641408406,5.936316647449388,2.7697216639155866,0.3826026386230088,0.3197226833766143,0.1238027290905897,25.0,25.0,25.0,25.0,25.0,25.0,24.0,9.542,0.0,0.0,1.0,1781028025680500843
