timestamp_ns,joint_1_pos,joint_2_pos,joint_3_pos,joint_4_pos,joint_5_pos,joint_6_pos,joint_1_vel,joint_2_vel,joint_3_vel,joint_4_vel,joint_5_vel,joint_6_vel,joint_1_current,joint_2_current,joint_3_current,joint_4_current,joint_5_current,joint_6_current,joint_1_temp,joint_2_temp,joint_3_temp,joint_4_temp,joint_5_temp,joint_6_temp,bus_voltage,bus_current,accel_x,accel_y,accel_z,timestamp_ns
1777874400022680834,275.36651611328125,184.84033203125,81.75634765625,243.19189453125,85.92855072021484,74.61917114257812,0.0,0.0,0.0,0.0,0.0,0.0,0.0,0.0,0.5965577363967896,0.0,0.0,0.0,28.549999237060547,27.65999984741211,31.770000457763672,29.510000228881836,28.790000915527344,30.719999313354492,23.83547592163086,0.08137165009975433,-0.15751123428344727,-0.006267229560762644,-1.1396936178207397,1777874400013435067
1777874400123401430,275.36651611328125,184.84033203125,81.75634765625,243.19189453125,85.92855072021484,74.61917114257812,0.0,0.0,0.0,0.0,0.0,0.0,0.0,0.0,0.6031133532524109,0.0,0.0,0.0,28.549999237060547,27.579999923706055,31.690000534057617,29.43000030517578,28.790000915527344,30.719999313354492,23.83547592163086,0.07331506162881851,-0.1563362181186676,-0.0064571695402264595,-1.1412922143936157,1777874400113502643
1777874400223146376,275.36651611328125,184.84033203125,81.75634765625,243.19189453125,85.92855072021484,74.61917114257812,0.0,0.0,0.0,0.0,0.0,0.0,0.0,0.0,0.5900022387504578,0.0,0.0,0.0,28.469999313354492,27.65999984741211,31.690000534057617,29.350000381469727,28.790000915527344,30.639999389648438,23.83547592163086,0.07895467430353165,-0.15621820092201233,-0.006566444877535105,-1.14115309715271,1777874400213569794
1777874400322802747,275.36651611328125,184.84033203125,81.75634765625,243.19189453125,85.92855072021484,74.61917114257812,0.0,0.0,0.0,0.0,0.0,0.0,0.0,0.0,0.6096689105033875,0.0,0.0,0.0,28.549999237060547,27.65999984741211,31.770000457763672,29.350000381469727,28.790000915527344,30.719999313354492,23.83547592163086,0.07814902067184448,-0.15597859025001526,-0.008834202773869038,-1.1402193307876587,1777874400313631777
1777874400422515637,275.36651611328125,184.84033203125,81.75634765625,243.19189453125,85.92855072021484,74.61917114257812,0.0,0.0,0.0,0.0,0.0,0.0,0.0,0.0,0.5900022387504578,0.0,0.0,0.0,28.469999313354492,27.65999984741211,31.690000534057617,29.43000030517578,28.790000915527344,30.719999313354492,23.83547592163086,0.08378863334655762,-0.1558983325958252,-0.008237361907958984,-1.1416057348251343,1777874400413690464
1777874400523226604,275.36651611328125,184.84033203125,81.75634765625,243.19189453125,85.92855072021484,74.61917114257812,0.0,0.0,0.0,0.0,0.0,0.0,0.0,0.0,0.6031133532524109,0.0,0.0,0.0,28.469999313354492,27.65999984741211,31.690000534057617,29.350000381469727,28.8700008392334,30.719999313354492,23.83547592163086,0.07734335958957672,-0.15609541535377502,-0.009609857574105263,-1.1409342288970947,1777874400513762633
1777874400622998013,275.36651611328125,184.84033203125,81.75634765625,243.19189453125,85.92855072021484,74.61917114257812,0.0,0.0,0.0,0.0,0.0,0.0,0.0,0.0,0.6096689105033875,0.0,0.0,0.0,28.549999237060547,27.65999984741211,31.690000534057617,29.43000030517578,28.8700008392334,30.639999389648438,23.83547592163086,0.08217731863260269,-0.15867114067077637,-0.009959936141967773,-1.139654278755188,1777874400613833635
1777874400722687162,275.36651611328125,184.84033203125,81.75634765625,243.19189453125,85.92855072021484,74.61917114257812,0.0,0.0,0.0,0.0,0.0,0.0,0.0,0.0,0.6096689105033875,0.0,0.0,0.0,28.549999237060547,27.739999771118164,31.690000534057617,29.43000030517578,28.790000915527344,30.719999313354492,23.83547592163086,0.07814902067184448,-0.15602906048297882,-0.008470216765999794,-1.1398906707763672,1777874400713885989
1777874400823341962,275.36651611328125,184.84033203125,81.75634765625,243.19189453125,85.92855072021484,74.61917114257812,0.0,0.0,0.0,0.0,0.0,0.0,0.0,0.0,0.6031133532524109,0.0,0.0,0.0,28.469999313354492,27.739999771118164,31.610000610351562,29.43000030517578,28.8700008392334,30.799999237060547,23.83547592163086,0.08862259984016418,-0.15640893578529358,-0.006133715156465769,-1.1421020030975342,1777874400813951269
1777874400923088685,275.36651611328125,184.84033203125,81.75634765625,243.19189453125,85.92855072021484,74.61917114257812,0.0,0.0,0.0,0.0,0.0,0.0,0.0,0.0,0.6031133532524109,0.0,0.0,0.0,28.549999237060547,27.579999923706055,31.690000534057617,29.350000381469727,28.8700008392334,30.719999313354492,23.83547592163086,0.07814902067184448,-0.15578150749206543,-0.008792081847786903,-1.1408538818359375,1777874400913991400
1777874401022767223,275.36651611328125,184.84033203125,81.75634765625,243.19189453125,85.92855072021484,74.61917114257812,0.0,0.0,0.0,0.0,0.0,0.0,0.0,0.0,0.6358912587165833,0.0,0.0,0.0,28.469999313354492,27.739999771118164,31.770000457763672,29.350000381469727,28.8700008392334,30.719999313354492,23.83547592163086,0.08217731863260269,-0.1561172753572464,-0.008405447006225586,-1.14084792137146,1777874401014057958
1777874401122459909,275.36651611328125,184.84033203125,81.75634765625,243.19189453125,85.92855072021484,74.61917114257812,0.0,0.0,0.0,0.0,0.0,0.0,0.0,0.0,0.6031133532524109,0.0,0.0,0.0,28.469999313354492,27.65999984741211,31.690000534057617,29.350000381469727,28.790000915527344,30.639999389648438,23.83547592163086,0.08056599646806717,-0.15709877014160156,-0.007478793151676655,-1.140116810798645,1777874401114142071
1777874401223168802,275.36651611328125,184.84033203125,81.75634765625,243.19189453125,85.92855072021484,74.61917114257812,0.0,0.0,0.0,0.0,0.0,0.0,0.0,0.0,0.5768910646438599,0.0,0.0,0.0,28.549999237060547,27.739999771118164,31.690000534057617,29.43000030517578,28.8700008392334,30.639999389648438,23.83547592163086,0.08217731863260269,-0.15782475471496582,-0.004889567382633686,-1.1398835182189941,1777874401214183888
1777874401322891229,275.36651611328125,184.84033203125,81.75634765625,243.19189453125,85.92855072021484,74.61917114257812,0.0,0.0,0.0,0.0,0.0,0.0,0.0,0.0,0.6096689105033875,0.0,0.0,0.0,28.549999237060547,27.65999984741211,31.770000457763672,29.43000030517578,28.8700008392334,30.799999237060547,23.83547592163086,0.07976033538579941,-0.15632152557373047,-0.010755062103271484,-1.1413283348083496,1777874401314244224
1777874401422593841,275.36651611328125,184.84033203125,81.75634765625,243.19189453125,85.92855072021484,74.61917114257812,0.0,0.0,0.0,0.0,0.0,0.0,0.0,0.0,0.6031133532524109,0.0,0.0,0.0,28.549999237060547,27.739999771118164,31.690000534057617,29.43000030517578,28.790000915527344,30.719999313354492,23.83547592163086,0.08217731863260269,-0.15718260407447815,-0.005705356597900391,-1.1407593488693237,1777874401414300263
1777874401523292697,275.36651611328125,184.84033203125,81.75634765625,243.19189453125,85.92855072021484,74.61917114257812,0.0,0.0,0.0,0.0,0.0,0.0,0.0,0.0,0.6031133532524109,0.0,0.0,0.0,28.469999313354492,27.65999984741211,31.770000457763672,29.510000228881836,28.790000915527344,30.719999313354492,23.83547592163086,0.07895467430353165,-0.1569676399230957,-0.009193817153573036,-1.139974594116211,1777874401514374302
1777874401623019235,275.36651611328125,184.84033203125,81.75634765625,243.19189453125,85.92855072021484,74.61917114257812,0.0,0.0,0.0,0.0,0.0,0.0,0.0,0.0,0.5900022387504578,0.0,0.0,0.0,28.549999237060547,27.65999984741211,31.690000534057617,29.43000030517578,28.790000915527344,30.799999237060547,23.83547592163086,0.07814902067184448,-0.15662789344787598,-0.00983119010925293,-1.139664649963379,1777874401614448933
1777874401722716384,275.36651611328125,184.84033203125,81.75634765625,243.19189453125,85.92855072021484,74.61917114257812,0.0,0.0,0.0,0.0,0.0,0.0,0.0,0.0,0.6227800846099854,0.0,0.0,0.0,28.469999313354492,27.739999771118164,31.770000457763672,29.43000030517578,28.8700008392334,30.719999313354492,23.83547592163086,0.07653769850730896,-0.15733559429645538,-0.005815029144287109,-1.141095519065857,1777874401714506065
1777874401822422311,275.36651611328125,184.84033203125,81.75634765625,243.19189453125,85.92855072021484,74.61917114257812,0.0,0.0,0.0,0.0,0.0,0.0,0.0,0.0,0.6031133532524109,0.0,0.0,0.0,28.549999237060547,27.579999923706055,31.770000457763672,29.350000381469727,28.790000915527344,30.719999313354492,23.83547592163086,0.07814901322126389,-0.15914559364318848,-0.0049463906325399876,-1.1388909816741943,1777874401814566197
1777874401923174130,275.36651611328125,184.84033203125,81.75634765625,243.19189453125,85.92855072021484,74.61917114257812,0.0,0.0,0.0,0.0,0.0,0.0,0.0,0.0,0.6227800846099854,0.0,0.0,0.0,28.469999313354492,27.65999984741211,31.770000457763672,29.43000030517578,28.790000915527344,30.719999313354492,23.83547592163086,0.07250940054655075,-0.1565384864807129,-0.005646944046020508,-1.1413359642028809,1777874401914643569
1777874402022851427,275.36651611328125,184.84033203125,81.75634765625,243.19189453125,85.92855072021484,74.61917114257812,0.0,0.0,0.0,0.0,0.0,0.0,0.0,0.0,0.5965577363967896,0.0,0.0,0.0,28.549999237060547,27.739999771118164,31.690000534057617,29.43000030517578,28.8700008392334,30.799999237060547,23.83547592163086,0.08217731863260269,-0.15708763897418976,-0.006264845374971628,-1.1412043571472168,1777874402014689960
1777874402122559021,275.36651611328125,184.84033203125,81.75634765625,243.19189453125,85.92855072021484,74.61917114257812,0.0,0.0,0.0,0.0,0.0,0.0,0.0,0.0,0.6096689105033875,0.0,0.0,0.0,28.549999237060547,27.579999923706055,31.690000534057617,29.43000030517578,28.790000915527344,30.799999237060547,23.83547592163086,0.07653769105672836,-0.15657702088356018,-0.006442467216402292,-1.1407954692840576,1777874402114778536
1777874402223317821,275.36651611328125,184.84033203125,81.75634765625,243.19189453125,85.92855072021484,74.61917114257812,0.0,0.0,0.0,0.0,0.0,0.0,0.0,0.0,0.6162245273590088,0.0,0.0,0.0,28.469999313354492,27.579999923706055,31.690000534057617,29.510000228881836,28.790000915527344,30.799999237060547,23.83547592163086,0.08459430187940598,-0.15702922642230988,-0.006362199783325195,-1.140688180923462,1777874402214819538
1777874402322969507,275.36651611328125,184.84033203125,81.75634765625,243.19189453125,85.92855072021484,74.61917114257812,0.0,0.0,0.0,0.0,0.0,0.0,0.0,0.0,0.6162245273590088,0.0,0.0,0.0,28.469999313354492,27.65999984741211,31.770000457763672,29.350000381469727,28.709999084472656,30.719999313354492,23.83547592163086,0.07492637634277344,-0.1554604321718216,-0.005085070617496967,-1.1407537460327148,1777874402314887559
1777874402422686860,275.36651611328125,184.84033203125,81.75634765625,243.19189453125,85.92855072021484,74.61917114257812,0.0,0.0,0.0,0.0,0.0,0.0,0.0,0.0,0.6490023732185364,0.0,0.0,0.0,28.469999313354492,27.65999984741211,31.610000610351562,29.350000381469727,28.790000915527344,30.719999313354492,23.83547592163086,0.07734335958957672,-0.15544691681861877,-0.0075022378005087376,-1.1403385400772095,1777874402414944709
1777874402522798733,275.36651611328125,184.84033203125,81.75634765625,243.19189453125,85.92855072021484,74.61917114257812,0.0,0.0,0.0,0.0,0.0,0.0,0.0,0.0,0.5900022387504578,0.0,0.0,0.0,28.549999237060547,27.65999984741211,31.770000457763672,29.350000381469727,28.790000915527344,30.719999313354492,23.83547592163086,0.0757320374250412,-0.15821218490600586,-0.004955132491886616,-1.1398906707763672,1777874402514994822
1777874402623174829,275.36651611328125,184.84033203125,81.75634765625,243.19189453125,85.92855072021484,74.61917114257812,0.0,0.0,0.0,0.0,0.0,0.0,0.0,0.0,0.6817803382873535,0.0,0.0,0.0,28.549999237060547,27.65999984741211,31.690000534057617,29.510000228881836,28.8700008392334,30.719999313354492,23.83547592163086,0.07170373946428299,-0.15783190727233887,-0.004991292953491211,-1.1409354209899902,1777874402615061824
1777874402722853385,275.36651611328125,184.84033203125,81.75634765625,243.19189453125,85.92855072021484,74.61917114257812,0.0,0.0,0.0,0.0,0.0,0.0,0.0,0.0,0.6162245273590088,0.0,0.0,0.0,28.469999313354492,27.65999984741211,31.770000457763672,29.43000030517578,28.8700008392334,30.719999313354492,23.83547592163086,0.08378864824771881,-0.15546798706054688,-0.009777545928955078,-1.1391170024871826,1777874402715119752
1777874402822511979,275.36651611328125,184.84033203125,81.75634765625,243.19189453125,85.92855072021484,74.61917114257812,0.0,0.0,0.0,0.0,0.0,0.0,0.0,0.0,0.5900022387504578,0.0,0.0,0.0,28.469999313354492,27.65999984741211,31.770000457763672,29.43000030517578,28.790000915527344,30.639999389648438,23.83547592163086,0.07331506162881851,-0.15824873745441437,-0.00828862190246582,-1.1398541927337646,1777874402815176440
1777874402923221482,275.36651611328125,184.84033203125,81.75634765625,243.19189453125,85.92855072021484,74.61917114257812,0.0,0.0,0.0,0.0,0.0,0.0,0.0,0.0,0.6227800846099854,0.0,0.0,0.0,28.469999313354492,27.65999984741211,31.850000381469727,29.43000030517578,28.790000915527344,30.639999389648438,23.83547592163086,0.08298297226428986,-0.15581806004047394,-0.010149875655770302,-1.1403067111968994,1777874402915250719
1777874403022513056,275.36651611328125,184.84033203125,81.75634765625,243.19189453125,85.92855072021484,74.61917114257812,0.0,0.0,0.0,0.0,0.0,0.0,0.0,0.0,0.5834466218948364,0.0,0.0,0.0,28.469999313354492,27.739999771118164,31.690000534057617,29.510000228881836,28.790000915527344,30.719999313354492,23.83547592163086,0.09345655888319016,-0.1570439338684082,-0.006905396468937397,-1.1400365829467773,1777874403015302518
1777874403122666374,275.36651611328125,184.84033203125,81.75634765625,243.19189453125,85.92855072021484,74.61917114257812,0.0,0.0,0.0,0.0,0.0,0.0,0.0,0.0,0.5965577363967896,0.0,0.0,0.0,28.549999237060547,27.65999984741211,31.770000457763672,29.43000030517578,28.709999084472656,30.719999313354492,23.835996627807617,0.07976034283638,-0.1562996655702591,-0.008610089309513569,-1.1407537460327148,1777874403115362464
1777874403223360248,275.36651611328125,184.84033203125,81.75634765625,243.19189453125,85.92855072021484,74.61917114257812,0.0,0.0,0.0,0.0,0.0,0.0,0.0,0.0,0.6227800846099854,0.0,0.0,0.0,28.549999237060547,27.65999984741211,31.690000534057617,29.510000228881836,28.790000915527344,30.719999313354492,23.835996627807617,0.0757320374250412,-0.15662074089050293,-0.006274382118135691,-1.1398688554763794,1777874403215437689
1777874403323064341,275.36651611328125,184.84033203125,81.75634765625,243.19189453125,85.92855072021484,74.61917114257812,0.0,0.0,0.0,0.0,0.0,0.0,0.0,0.0,0.6162245273590088,0.0,0.0,0.0,28.549999237060547,27.65999984741211,31.770000457763672,29.43000030517578,28.790000915527344,30.719999313354492,23.835996627807617,0.07895468175411224,-0.15558481216430664,-0.00766118336468935,-1.1410073041915894,1777874403315480172
1777874403422777250,275.36651611328125,184.84033203125,81.75634765625,243.19189453125,85.92855072021484,74.61917114257812,0.0,0.0,0.0,0.0,0.0,0.0,0.0,0.0,0.5900022387504578,0.0,0.0,0.0,28.469999313354492,27.65999984741211,31.690000534057617,29.43000030517578,28.8700008392334,30.799999237060547,23.835996627807617,0.08378864079713821,-0.1568802148103714,-0.007354815490543842,-1.1396205425262451,1777874403415541989
1777874403522714400,275.36651611328125,184.84033203125,81.75634765625,243.19189453125,85.92855072021484,74.61917114257812,0.0,0.0,0.0,0.0,0.0,0.0,0.0,0.0,0.6031133532524109,0.0,0.0,0.0,28.469999313354492,27.739999771118164,31.770000457763672,29.43000030517578,28.790000915527344,30.799999237060547,23.835996627807617,0.07331505417823792,-0.1563870906829834,-0.004530350212007761,-1.1391901969909668,1777874403515619232
1777874403623191125,275.36651611328125,184.84033203125,81.75634765625,243.19189453125,85.92855072021484,74.61917114257812,0.0,0.0,0.0,0.0,0.0,0.0,0.0,0.0,0.6096689105033875,0.0,0.0,0.0,28.549999237060547,27.579999923706055,31.690000534057617,29.510000228881836,28.790000915527344,30.719999313354492,23.835996627807617,0.0966792032122612,-0.15698552131652832,-0.009047587402164936,-1.1406055688858032,1777874403615664437
1777874403722902960,275.36651611328125,184.84033203125,81.75634765625,243.19189453125,85.92855072021484,74.61917114257812,0.0,0.0,0.0,0.0,0.0,0.0,0.0,0.0,0.5965577363967896,0.0,0.0,0.0,28.469999313354492,27.65999984741211,31.770000457763672,29.43000030517578,28.790000915527344,30.719999313354492,23.835996627807617,0.07331505417823792,-0.15542387962341309,-0.008617241866886616,-1.1410216093063354,1777874403715725551
1777874403822659516,275.36651611328125,184.84033203125,81.75634765625,243.19189453125,85.92855072021484,74.61917114257812,0.0,0.0,0.0,0.0,0.0,0.0,0.0,0.0,0.6686691641807556,0.0,0.0,0.0,28.469999313354492,27.65999984741211,31.690000534057617,29.350000381469727,28.790000915527344,30.719999313354492,23.835996627807617,0.08459429442882538,-0.15625596046447754,-0.00957290269434452,-1.1408249139785767,1777874403815799442
1777874403923318798,275.36651611328125,184.84033203125,81.75634765625,243.19189453125,85.92855072021484,74.61917114257812,0.0,0.0,0.0,0.0,0.0,0.0,0.0,0.0,0.6162245273590088,0.0,0.0,0.0,28.549999237060547,27.579999923706055,31.690000534057617,29.43000030517578,28.790000915527344,30.719999313354492,23.835996627807617,0.08378863334655762,-0.1565917283296585,-0.008972087875008583,-1.1410439014434814,1777874403915878407
1777874404023277114,275.36651611328125,184.84033203125,81.75634765625,243.19189453125,85.92855072021484,74.61917114257812,0.0,0.0,0.0,0.0,0.0,0.0,0.0,0.0,0.6227800846099854,0.0,0.0,0.0,28.469999313354492,27.65999984741211,31.770000457763672,29.510000228881836,28.8700008392334,30.639999389648438,23.835996627807617,0.07976033538579941,-0.15662074089050293,-0.007946093566715717,-1.1400806903839111,1777874404015911538
1777874404122737522,275.36651611328125,184.84033203125,81.75634765625,243.19189453125,85.92855072021484,74.61917114257812,0.0,0.0,0.0,0.0,0.0,0.0,0.0,0.0,0.5965577363967896,0.0,0.0,0.0,28.469999313354492,27.579999923706055,31.850000381469727,29.510000228881836,28.790000915527344,30.719999313354492,23.835996627807617,0.07895468175411224,-0.15711665153503418,-0.010667641647160053,-1.140047311782837,1777874404115987133
1777874404222454468,275.36651611328125,184.84033203125,81.75634765625,243.19189453125,85.92855072021484,74.61917114257812,0.0,0.0,0.0,0.0,0.0,0.0,0.0,0.0,0.6162245273590088,0.0,0.0,0.0,28.469999313354492,27.579999923706055,31.690000534057617,29.43000030517578,28.8700008392334,30.799999237060547,23.835996627807617,0.07492637634277344,-0.15645304322242737,-0.009310642257332802,-1.1403477191925049,1777874404216011764
1777874404323190898,275.36651611328125,184.84033203125,81.75634765625,243.19189453125,85.92855072021484,74.61917114257812,0.0,0.0,0.0,0.0,0.0,0.0,0.0,0.0,0.6031133532524109,0.0,0.0,0.0,28.549999237060547,27.65999984741211,31.690000534057617,29.510000228881836,28.709999084472656,30.639999389648438,23.835996627807617,0.0757320374250412,-0.15752553939819336,-0.009923378005623817,-1.1398032903671265,1777874404316065674
1777874404422857158,275.36651611328125,184.84033203125,81.75634765625,243.19189453125,85.92855072021484,74.61917114257812,0.0,0.0,0.0,0.0,0.0,0.0,0.0,0.0,0.6096689105033875,0.0,0.0,0.0,28.469999313354492,27.65999984741211,31.690000534057617,29.43000030517578,28.790000915527344,30.719999313354492,23.835996627807617,0.0821773111820221,-0.15741586685180664,-0.008514721877872944,-1.1414889097213745,1777874404416133861
1777874404522576566,275.36651611328125,184.84033203125,81.75634765625,243.19189453125,85.92855072021484,74.61917114257812,0.0,0.0,0.0,0.0,0.0,0.0,0.0,0.0,0.5900022387504578,0.0,0.0,0.0,28.549999237060547,27.65999984741211,31.690000534057617,29.43000030517578,28.790000915527344,30.799999237060547,23.835996627807617,0.07976034283638,-0.1566934585571289,-0.006325642112642527,-1.1392266750335693,1777874404516194845
1777874404623291329,275.36651611328125,184.84033203125,81.75634765625,243.19189453125,85.92855072021484,74.61917114257812,0.0,0.0,0.0,0.0,0.0,0.0,0.0,0.0,0.6031133532524109,0.0,0.0,0.0,28.469999313354492,27.739999771118164,31.770000457763672,29.43000030517578,28.790000915527344,30.719999313354492,23.835996627807617,0.07895467430353165,-0.1566791534423828,-0.008989174850285053,-1.13943612575531,1777874404616248513
1777874404722964682,275.36651611328125,184.84033203125,81.75634765625,243.19189453125,85.92855072021484,74.61917114257812,0.0,0.0,0.0,0.0,0.0,0.0,0.0,0.0,0.5703354477882385,0.0,0.0,0.0,28.469999313354492,27.65999984741211,31.770000457763672,29.350000381469727,28.790000915527344,30.719999313354492,23.835996627807617,0.07653769850730896,-0.15712419152259827,-0.009565750136971474,-1.139264464378357,1777874404716309812
1777874404822711869,275.36651611328125,184.84033203125,81.75634765625,243.19189453125,85.92855072021484,74.61917114257812,0.0,0.0,0.0,0.0,0.0,0.0,0.0,0.0,0.5965577363967896,0.0,0.0,0.0,28.549999237060547,27.65999984741211,31.690000534057617,29.43000030517578,28.790000915527344,30.639999389648438,23.835996627807617,0.08137165755033493,-0.1568659096956253,-0.008594989776611328,-1.1413792371749878,1777874404816365332
1777874404923396280,275.36651611328125,184.84033203125,81.75634765625,243.19189453125,85.92855072021484,74.61917114257812,0.0,0.0,0.0,0.0,0.0,0.0,0.0,0.0,0.6162245273590088,0.0,0.0,0.0,28.469999313354492,27.65999984741211,31.690000534057617,29.510000228881836,28.790000915527344,30.799999237060547,23.835996627807617,0.0757320374250412,-0.15675663948059082,-0.006002982147037983,-1.1409051418304443,1777874404916447983
1777874405023121151,275.36651611328125,184.84033203125,81.75634765625,243.19189453125,85.92855072021484,74.61917114257812,0.0,0.0,0.0,0.0,0.0,0.0,0.0,0.0,0.6424468159675598,0.0,0.0,0.0,28.549999237060547,27.739999771118164,31.770000457763672,29.43000030517578,28.8700008392334,30.719999313354492,23.835996627807617,0.07814902067184448,-0.15737254917621613,-0.0072765350341796875,-1.1408467292785645,1777874405016507762
1777874405122845801,275.36651611328125,184.84033203125,81.75634765625,243.19189453125,85.92855072021484,74.61917114257812,0.0,0.0,0.0,0.0,0.0,0.0,0.0,0.0,0.6227800846099854,0.0,0.0,0.0,28.469999313354492,27.65999984741211,31.770000457763672,29.43000030517578,28.8700008392334,30.719999313354492,23.835996627807617,0.07492637634277344,-0.15535831451416016,-0.00766118336468935,-1.1420360803604126,1777874405116582802
1777874405222522079,275.36651611328125,184.84033203125,81.75634765625,243.19189453125,85.92855072021484,74.61917114257812,0.0,0.0,0.0,0.0,0.0,0.0,0.0,0.0,0.6031133532524109,0.0,0.0,0.0,28.469999313354492,27.739999771118164,31.690000534057617,29.43000030517578,28.790000915527344,30.719999313354492,23.835996627807617,0.08378863334655762,-0.1579650193452835,-0.00629425048828125,-1.1390808820724487,1777874405216641489
1777874405323220953,275.36651611328125,184.84033203125,81.75634765625,243.19189453125,85.92855072021484,74.61917114257812,0.0,0.0,0.0,0.0,0.0,0.0,0.0,0.0,0.0,0.0,0.0,0.0,0.0,0.0,0.0,0.0,0.0,0.0,23.835996627807617,0.0,0.0,0.0,0.0,1777874405216641489
1777874405423016566,275.36651611328125,184.84033203125,81.75634765625,243.19189453125,85.92855072021484,74.61917114257812,0.0,0.0,0.0,0.0,0.0,0.0,0.0,0.0,0.6096689105033875,0.0,0.0,0.0,28.469999313354492,27.65999984741211,31.770000457763672,29.43000030517578,28.790000915527344,30.719999313354492,23.835996627807617,0.0757320374250412,-0.15783190727233887,-0.010383923538029194,-1.139416217803955,1777874405416767030
1777874405522666696,275.36651611328125,184.84033203125,81.75634765625,243.19189453125,85.92855072021484,74.61917114257812,0.0,0.0,0.0,0.0,0.0,0.0,0.0,0.0,0.6031133532524109,0.0,0.0,0.0,28.549999237060547,27.65999984741211,31.770000457763672,29.43000030517578,28.790000915527344,30.719999313354492,23.835996627807617,0.07492638379335403,-0.157430961728096,-0.0064130621030926704,-1.1398394107818604,1777874405516831217
1777874405623351497,275.36651611328125,184.84033203125,81.75634765625,243.19189453125,85.92855072021484,74.61917114257812,0.0,0.0,0.0,0.0,0.0,0.0,0.0,0.0,0.6227800846099854,0.0,0.0,0.0,28.469999313354492,27.65999984741211,31.770000457763672,29.43000030517578,28.790000915527344,30.719999313354492,23.835996627807617,0.07250940054655075,-0.15627741813659668,-0.007179577834904194,-1.1414086818695068,1777874405616875997
1777874405723088664,275.36651611328125,184.84033203125,81.75634765625,243.19189453125,85.92855072021484,74.61917114257812,0.0,0.0,0.0,0.0,0.0,0.0,0.0,0.0,0.5834466218948364,0.0,0.0,0.0,28.549999237060547,27.65999984741211,31.770000457763672,29.43000030517578,28.790000915527344,30.719999313354492,23.835996627807617,0.0757320374250412,-0.1561315804719925,-0.006041129119694233,-1.140695333480835,1777874405716945962
1777874405822773665,275.36651611328125,184.84033203125,81.75634765625,243.19189453125,85.92855072021484,74.61917114257812,0.0,0.0,0.0,0.0,0.0,0.0,0.0,0.0,0.5834466218948364,0.0,0.0,0.0,28.469999313354492,27.65999984741211,31.770000457763672,29.43000030517578,28.790000915527344,30.799999237060547,23.835996627807617,0.07814901322126389,-0.1573212891817093,-0.004376967437565327,-1.1402777433395386,1777874405816999168
1777874405922485722,275.36651611328125,184.84033203125,81.75634765625,243.19189453125,85.92855072021484,74.61917114257812,0.0,0.0,0.0,0.0,0.0,0.0,0.0,0.0,0.6358912587165833,0.0,0.0,0.0,28.469999313354492,27.65999984741211,31.690000534057617,29.510000228881836,28.8700008392334,30.799999237060547,23.835996627807617,0.08459430187940598,-0.15817482769489288,-0.008404651656746864,-1.1409635543823242,1777874405917077762
1777874406023225300,275.36651611328125,184.84033203125,81.75634765625,243.19189453125,85.92855072021484,74.61917114257812,0.0,0.0,0.0,0.0,0.0,0.0,0.0,0.0,0.5768910646438599,0.0,0.0,0.0,28.549999237060547,27.65999984741211,31.690000534057617,29.43000030517578,28.790000915527344,30.799999237060547,23.835996627807617,0.07412072271108627,-0.15529990196228027,-0.006916522979736328,-1.1409413814544678,1777874406017138505
1777874406122905264,275.36651611328125,184.84033203125,81.75634765625,243.19189453125,85.92855072021484,74.61917114257812,0.0,0.0,0.0,0.0,0.0,0.0,0.0,0.0,0.6031133532524109,0.0,0.0,0.0,28.469999313354492,27.579999923706055,31.770000457763672,29.350000381469727,28.8700008392334,30.719999313354492,23.835996627807617,0.08056599646806717,-0.15582521259784698,-0.006522734649479389,-1.14115309715271,1777874406117197285
1777874406222626747,275.36651611328125,184.84033203125,81.75634765625,243.19189453125,85.92855072021484,74.61917114257812,0.0,0.0,0.0,0.0,0.0,0.0,0.0,0.0,0.5900022387504578,0.0,0.0,0.0,28.549999237060547,27.65999984741211,31.690000534057617,29.510000228881836,28.8700008392334,30.719999313354492,23.835996627807617,0.07492637634277344,-0.15651662647724152,-0.00611424446105957,-1.140153408050537,1777874406217241065
1777874406323332436,275.36651611328125,184.84033203125,81.75634765625,243.19189453125,85.92855072021484,74.61917114257812,0.0,0.0,0.0,0.0,0.0,0.0,0.0,0.0,0.6031133532524109,0.0,0.0,0.0,28.549999237060547,27.579999923706055,31.690000534057617,29.43000030517578,28.709999084472656,30.719999313354492,23.835996627807617,0.07734335958957672,-0.15681782364845276,-0.008390744216740131,-1.1409413814544678,1777874406317307622
1777874406423036492,275.36651611328125,184.84033203125,81.75634765625,243.19189453125,85.92855072021484,74.61917114257812,0.0,0.0,0.0,0.0,0.0,0.0,0.0,0.0,0.5965577363967896,0.0,0.0,0.0,28.469999313354492,27.739999771118164,31.610000610351562,29.510000228881836,28.8700008392334,30.719999313354492,23.835996627807617,0.08056599646806717,-0.1570582389831543,-0.0056691961362957954,-1.1397345066070557,1777874406417379884
1777874406522760956,275.36651611328125,184.84033203125,81.75634765625,243.19189453125,85.92855072021484,74.61917114257812,0.0,0.0,0.0,0.0,0.0,0.0,0.0,0.0,0.6162245273590088,0.0,0.0,0.0,28.469999313354492,27.579999923706055,31.770000457763672,29.43000030517578,28.8700008392334,30.719999313354492,23.835996627807617,0.07331505417823792,-0.15630722045898438,-0.00631848955526948,-1.1396498680114746,1777874406517439534
1777874406622493217,275.36651611328125,184.84033203125,81.75634765625,243.19189453125,85.92855072021484,74.61917114257812,0.0,0.0,0.0,0.0,0.0,0.0,0.0,0.0,0.6293357014656067,0.0,0.0,0.0,28.469999313354492,27.65999984741211,31.690000534057617,29.43000030517578,28.8700008392334,30.799999237060547,23.835996627807617,0.08539995551109314,-0.1571754515171051,-0.007164875511080027,-1.1398470401763916,1777874406617504443
1777874406723258758,275.36651611328125,184.84033203125,81.75634765625,243.19189453125,85.92855072021484,74.61917114257812,0.0,0.0,0.0,0.0,0.0,0.0,0.0,0.0,0.5768910646438599,0.0,0.0,0.0,28.469999313354492,27.65999984741211,31.690000534057617,29.350000381469727,28.790000915527344,30.799999237060547,23.835996627807617,0.08137165755033493,-0.15571554005146027,-0.00709215784445405,-1.142398476600647,1777874406717554890
1777874406822881388,275.36651611328125,184.84033203125,81.75634765625,243.19189453125,85.92855072021484,74.61917114257812,0.0,0.0,0.0,0.0,0.0,0.0,0.0,0.0,0.6424468159675598,0.0,0.0,0.0,28.469999313354492,27.65999984741211,31.690000534057617,29.43000030517578,28.790000915527344,30.719999313354492,23.835996627807617,0.07814902067184448,-0.15703320503234863,-0.006902217864990234,-1.1396936178207397,1777874406817624299
1777874406922617463,275.36651611328125,184.84033203125,81.75634765625,243.19189453125,85.92855072021484,74.61917114257812,0.0,0.0,0.0,0.0,0.0,0.0,0.0,0.0,0.6031133532524109,0.0,0.0,0.0,28.469999313354492,27.579999923706055,31.690000534057617,29.350000381469727,28.8700008392334,30.719999313354492,23.835996627807617,0.08781693875789642,-0.15782475471496582,-0.0061702728271484375,-1.1408320665359497,1777874406917681024
1777874407023340708,275.36651611328125,184.84033203125,81.75634765625,243.19189453125,85.92855072021484,74.61917114257812,0.0,0.0,0.0,0.0,0.0,0.0,0.0,0.0,0.6162245273590088,0.0,0.0,0.0,28.469999313354492,27.65999984741211,31.770000457763672,29.350000381469727,28.709999084472656,30.719999313354492,23.835996627807617,0.08539995551109314,-0.15535831451416016,-0.0075956182554364204,-1.1409635543823242,1777874407017732915
1777874407123005246,275.36651611328125,184.84033203125,81.75634765625,243.19189453125,85.92855072021484,74.61917114257812,0.0,0.0,0.0,0.0,0.0,0.0,0.0,0.0,0.6162245273590088,0.0,0.0,0.0,28.549999237060547,27.65999984741211,31.690000534057617,29.43000030517578,28.790000915527344,30.719999313354492,23.835996627807617,0.08056599646806717,-0.15737970173358917,-0.007573763374239206,-1.1408904790878296,1777874407117797009
1777874407222717766,275.36651611328125,184.84033203125,81.75634765625,243.19189453125,85.92855072021484,74.61917114257812,0.0,0.0,0.0,0.0,0.0,0.0,0.0,0.0,0.5900022387504578,0.0,0.0,0.0,28.549999237060547,27.65999984741211,31.690000534057617,29.43000030517578,28.8700008392334,30.719999313354492,23.835996627807617,0.08217731863260269,-0.15431442856788635,-0.0074640908278524876,-1.1408042907714844,1777874407217875419
1777874407323405677,275.36651611328125,184.84033203125,81.75634765625,243.19189453125,85.92855072021484,74.61917114257812,0.0,0.0,0.0,0.0,0.0,0.0,0.0,0.0,0.6031133532524109,0.0,0.0,0.0,28.549999237060547,27.579999923706055,31.770000457763672,29.43000030517578,28.8700008392334,30.799999237060547,23.835996627807617,0.07653769850730896,-0.15803773701190948,-0.0068509578704833984,-1.1393359899520874,1777874407317934810
1777874407423119122,275.36651611328125,184.84033203125,81.75634765625,243.19189453125,85.92855072021484,74.61917114257812,0.0,0.0,0.0,0.0,0.0,0.0,0.0,0.0,0.6096689105033875,0.0,0.0,0.0,28.549999237060547,27.739999771118164,31.690000534057617,29.43000030517578,28.8700008392334,30.639999389648438,23.835996627807617,0.09345655888319016,-0.15658417344093323,-0.01006404496729374,-1.1413061618804932,1777874407417983015
1777874407522832605,275.36651611328125,184.84033203125,81.75634765625,243.19189453125,85.92855072021484,74.61917114257812,0.0,0.0,0.0,0.0,0.0,0.0,0.0,0.0,0.5900022387504578,0.0,0.0,0.0,28.469999313354492,27.65999984741211,31.690000534057617,29.350000381469727,28.790000915527344,30.719999313354492,23.835996627807617,0.07412071526050568,-0.15712419152259827,-0.005727211479097605,-1.1393141746520996,1777874407518007888
1777874407622540347,275.36651611328125,184.84033203125,81.75634765625,243.19189453125,85.92855072021484,74.61917114257812,0.0,0.0,0.0,0.0,0.0,0.0,0.0,0.0,0.6162245273590088,0.0,0.0,0.0,28.469999313354492,27.65999984741211,31.770000457763672,29.510000228881836,28.790000915527344,30.799999237060547,23.835996627807617,0.07895468175411224,-0.15724816918373108,-0.008164644241333008,-1.1392629146575928,1777874407618061242
1777874407723247443,275.36651611328125,184.84033203125,81.75634765625,243.19189453125,85.92855072021484,74.61917114257812,0.0,0.0,0.0,0.0,0.0,0.0,0.0,0.0,0.6096689105033875,0.0,0.0,0.0,28.469999313354492,27.65999984741211,31.690000534057617,29.43000030517578,28.8700008392334,30.719999313354492,23.835996627807617,0.07976034283638,-0.15744805335998535,-0.007778008468449116,-1.1393852233886719,1777874407718137707
1777874407822983111,275.36651611328125,184.84033203125,81.75634765625,243.19189453125,85.92855072021484,74.61917114257812,0.0,0.0,0.0,0.0,0.0,0.0,0.0,0.0,0.6162245273590088,0.0,0.0,0.0,28.469999313354492,27.65999984741211,31.770000457763672,29.43000030517578,28.8700008392334,30.719999313354492,23.835996627807617,0.0757320374250412,-0.15539565682411194,-0.006999969482421875,-1.1397520303726196,1777874407818200635
1777874407922687371,275.36651611328125,184.84033203125,81.75634765625,243.19189453125,85.92855072021484,74.61917114257812,0.0,0.0,0.0,0.0,0.0,0.0,0.0,0.0,0.5768910646438599,0.0,0.0,0.0,28.549999237060547,27.65999984741211,31.690000534057617,29.43000030517578,28.8700008392334,30.719999313354492,23.835996627807617,0.07492638379335403,-0.15589118003845215,-0.005661646369844675,-1.14065682888031,1777874407918270451
1777874408023374949,275.36651611328125,184.84033203125,81.75634765625,243.19189453125,85.92855072021484,74.61917114257812,0.0,0.0,0.0,0.0,0.0,0.0,0.0,0.0,0.6227800846099854,0.0,0.0,0.0,28.469999313354492,27.65999984741211,31.690000534057617,29.43000030517578,28.8700008392334,30.719999313354492,23.835996627807617,0.07976033538579941,-0.15615344047546387,-0.008507569320499897,-1.1422840356826782,1777874408018325898
1777874408123081635,275.36651611328125,184.84033203125,81.75634765625,243.19189453125,85.92855072021484,74.61917114257812,0.0,0.0,0.0,0.0,0.0,0.0,0.0,0.0,0.6293357014656067,0.0,0.0,0.0,28.469999313354492,27.65999984741211,31.690000534057617,29.43000030517578,28.790000915527344,30.719999313354492,23.8358211517334,0.07412071526050568,-0.15774448215961456,-0.00828862190246582,-1.1416049003601074,1777874408118394419
1777874408222798859,275.36651611328125,184.84033203125,81.75634765625,243.19189453125,85.92855072021484,74.61917114257812,0.0,0.0,0.0,0.0,0.0,0.0,0.0,0.0,0.6227800846099854,0.0,0.0,0.0,28.549999237060547,27.65999984741211,31.690000534057617,29.510000228881836,28.790000915527344,30.719999313354492,23.8358211517334,0.07331505417823792,-0.15771031379699707,-0.0095367431640625,-1.1401970386505127,1777874408218451439
1777874408322509786,275.36651611328125,184.84033203125,81.75634765625,243.19189453125,85.92855072021484,74.61917114257812,0.0,0.0,0.0,0.0,0.0,0.0,0.0,0.0,0.5441131591796875,0.0,0.0,0.0,28.549999237060547,27.579999923706055,31.770000457763672,29.350000381469727,28.790000915527344,30.719999313354492,23.8358211517334,0.08217732608318329,-0.15599289536476135,-0.004845857620239258,-1.1415473222732544,1777874408318514015
1777874408423253345,275.36651611328125,184.84033203125,81.75634765625,243.19189453125,85.92855072021484,74.61917114257812,0.0,0.0,0.0,0.0,0.0,0.0,0.0,0.0,0.5965577363967896,0.0,0.0,0.0,28.549999237060547,27.65999984741211,31.610000610351562,29.43000030517578,28.790000915527344,30.639999389648438,23.8358211517334,0.07734335958957672,-0.15765705704689026,-0.008186498656868935,-1.1398541927337646,1777874408418582295
1777874408522945328,275.36651611328125,184.84033203125,81.75634765625,243.19189453125,85.92855072021484,74.61917114257812,0.0,0.0,0.0,0.0,0.0,0.0,0.0,0.0,0.5834466218948364,0.0,0.0,0.0,28.469999313354492,27.579999923706055,31.770000457763672,29.510000228881836,28.790000915527344,30.719999313354492,23.8358211517334,0.07734335213899612,-0.15571554005146027,-0.006267229560762644,-1.141116976737976,1777874408518646242
1777874408622700921,275.36651611328125,184.84033203125,81.75634765625,243.19189453125,85.92855072021484,74.61917114257812,0.0,0.0,0.0,0.0,0.0,0.0,0.0,0.0,0.5900022387504578,0.0,0.0,0.0,28.469999313354492,27.65999984741211,31.690000534057617,29.43000030517578,28.790000915527344,30.639999389648438,23.8358211517334,0.10554145276546478,-0.1569124013185501,-0.009784698486328125,-1.140702486038208,1777874408618711762
1777874408723324981,275.36651611328125,184.84033203125,81.75634765625,243.19189453125,85.92855072021484,74.61917114257812,0.0,0.0,0.0,0.0,0.0,0.0,0.0,0.0,0.5572242736816406,0.0,0.0,0.0,28.549999237060547,27.579999923706055,31.690000534057617,29.59000015258789,28.790000915527344,30.719999313354492,23.8358211517334,0.0757320374250412,-0.1563052237033844,-0.005887746810913086,-1.140642523765564,1777874408718782172
1777874408823049148,275.36651611328125,184.84033203125,81.75634765625,243.19189453125,85.92855072021484,74.61917114257812,0.0,0.0,0.0,0.0,0.0,0.0,0.0,0.0,0.6162245273590088,0.0,0.0,0.0,28.469999313354492,27.65999984741211,31.610000610351562,29.43000030517578,28.8700008392334,30.799999237060547,23.8358211517334,0.07331506162881851,-0.1571388989686966,-0.005311568267643452,-1.1401898860931396,1777874408818839285
1777874408922764501,275.36651611328125,184.84033203125,81.75634765625,243.19189453125,85.92855072021484,74.61917114257812,0.0,0.0,0.0,0.0,0.0,0.0,0.0,0.0,0.5703354477882385,0.0,0.0,0.0,28.549999237060547,27.65999984741211,31.770000457763672,29.43000030517578,28.8700008392334,30.719999313354492,23.8358211517334,0.07089807838201523,-0.1568690836429596,-0.004749298095703125,-1.1409854888916016,1777874408918905139
1777874409022450539,275.36651611328125,184.84033203125,81.75634765625,243.19189453125,85.92855072021484,74.61917114257812,0.0,0.0,0.0,0.0,0.0,0.0,0.0,0.0,0.6096689105033875,0.0,0.0,0.0,28.469999313354492,27.579999923706055,31.610000610351562,29.350000381469727,28.8700008392334,30.719999313354492,23.8358211517334,0.07734335958957672,-0.15592733025550842,-0.009398062713444233,-1.1420289278030396,1777874409018967733
1777874409123169562,275.36651611328125,184.84033203125,81.75634765625,243.19189453125,85.92855072021484,74.61917114257812,0.0,0.0,0.0,0.0,0.0,0.0,0.0,0.0,0.6096689105033875,0.0,0.0,0.0,28.469999313354492,27.65999984741211,31.770000457763672,29.43000030517578,28.790000915527344,30.719999313354492,23.8358211517334,0.08056599646806717,-0.15783190727233887,-0.007712443359196186,-1.1400694847106934,1777874409119023476
1777874409222888341,275.36651611328125,184.84033203125,81.75634765625,243.19189453125,85.92855072021484,74.61917114257812,0.0,0.0,0.0,0.0,0.0,0.0,0.0,0.0,0.6162245273590088,0.0,0.0,0.0,28.549999237060547,27.65999984741211,31.690000534057617,29.43000030517578,28.8700008392334,30.639999389648438,23.8358211517334,0.07734335958957672,-0.15605051815509796,-0.008084376342594624,-1.140663981437683,1777874409219084237
1777874409322590638,275.36651611328125,184.84033203125,81.75634765625,243.19189453125,85.92855072021484,74.61917114257812,0.0,0.0,0.0,0.0,0.0,0.0,0.0,0.0,0.5965577363967896,0.0,0.0,0.0,28.549999237060547,27.65999984741211,31.690000534057617,29.510000228881836,28.790000915527344,30.719999313354492,23.8358211517334,0.0966791957616806,-0.15699267387390137,-0.007516542915254831,-1.1404526233673096,1777874409319142702
1777874409423293957,275.36651611328125,184.84033203125,81.75634765625,243.19189453125,85.92855072021484,74.61917114257812,0.0,0.0,0.0,0.0,0.0,0.0,0.0,0.0,0.6293357014656067,0.0,0.0,0.0,28.549999237060547,27.65999984741211,31.770000457763672,29.43000030517578,28.790000915527344,30.639999389648438,23.8358211517334,0.08298297971487045,-0.15621185302734375,-0.009011030197143555,-1.1409635543823242,1777874409419204167
1777874409523032921,275.36651611328125,184.84033203125,81.75634765625,243.19189453125,85.92855072021484,74.61917114257812,0.0,0.0,0.0,0.0,0.0,0.0,0.0,0.0,0.5965577363967896,0.0,0.0,0.0,28.469999313354492,27.579999923706055,31.850000381469727,29.510000228881836,28.790000915527344,30.799999237060547,23.8358211517334,0.07734335958957672,-0.15646734833717346,-0.005975564010441303,-1.139639973640442,1777874409519274540
1777874409622710014,275.36651611328125,184.84033203125,81.75634765625,243.19189453125,85.92855072021484,74.61917114257812,0.0,0.0,0.0,0.0,0.0,0.0,0.0,0.0,0.6293357014656067,0.0,0.0,0.0,28.469999313354492,27.65999984741211,31.610000610351562,29.43000030517578,28.790000915527344,30.799999237060547,23.8358211517334,0.08217731863260269,-0.15648722648620605,-0.004749298095703125,-1.140629768371582,1777874409619334986
1777874409722425127,275.36651611328125,184.84033203125,81.75634765625,243.19189453125,85.92855072021484,74.61917114257812,0.0,0.0,0.0,0.0,0.0,0.0,0.0,0.0,0.6096689105033875,0.0,0.0,0.0,28.469999313354492,27.65999984741211,31.770000457763672,29.43000030517578,28.709999084472656,30.799999237060547,23.8358211517334,0.0757320374250412,-0.15638549625873566,-0.0073568024672567844,-1.1416641473770142,1777874409719399488
1777874409823152075,275.36651611328125,184.84033203125,81.75634765625,243.19189453125,85.92855072021484,74.61917114257812,0.0,0.0,0.0,0.0,0.0,0.0,0.0,0.0,0.6162245273590088,0.0,0.0,0.0,28.469999313354492,27.65999984741211,31.690000534057617,29.43000030517578,28.790000915527344,30.799999237060547,23.8358211517334,0.07734335958957672,-0.15625596046447754,-0.0075312452390789986,-1.141685962677002,1777874409819452268
1777874409922854520,275.36651611328125,184.84033203125,81.75634765625,243.19189453125,85.92855072021484,74.61917114257812,0.0,0.0,0.0,0.0,0.0,0.0,0.0,0.0,0.6358912587165833,0.0,0.0,0.0,28.469999313354492,27.739999771118164,31.610000610351562,29.510000228881836,28.790000915527344,30.799999237060547,23.8358211517334,0.07734335958957672,-0.15689054131507874,-0.00715772295370698,-1.1399201154708862,1777874409919553141
1777874410022557558,275.36651611328125,184.84033203125,81.75634765625,243.19189453125,85.92855072021484,74.61917114257812,0.0,0.0,0.0,0.0,0.0,0.0,0.0,0.0,0.5834466218948364,0.0,0.0,0.0,28.549999237060547,27.65999984741211,31.770000457763672,29.43000030517578,28.790000915527344,30.719999313354492,23.8358211517334,0.07492638379335403,-0.1571313440799713,-0.005282163619995117,-1.1399165391921997,1777874410019611032
1777874410123284025,275.36651611328125,184.84033203125,81.75634765625,243.19189453125,85.92855072021484,74.61917114257812,0.0,0.0,0.0,0.0,0.0,0.0,0.0,0.0,0.5900022387504578,0.0,0.0,0.0,28.389999389648438,27.65999984741211,31.690000534057617,29.43000030517578,28.790000915527344,30.639999389648438,23.8358211517334,0.08862259238958359,-0.15795746445655823,-0.008624394424259663,-1.1409051418304443,1777874410119687071
1777874410223044897,275.36651611328125,184.84033203125,81.75634765625,243.19189453125,85.92855072021484,74.61917114257812,0.0,0.0,0.0,0.0,0.0,0.0,0.0,0.0,0.6227800846099854,0.0,0.0,0.0,28.469999313354492,27.739999771118164,31.610000610351562,29.350000381469727,28.8700008392334,30.639999389648438,23.8358211517334,0.07976033538579941,-0.15758395195007324,-0.0038484730757772923,-1.1399856805801392,1777874410219751166
1777874410322696490,275.36651611328125,184.84033203125,81.75634765625,243.19189453125,85.92855072021484,74.61917114257812,0.0,0.0,0.0,0.0,0.0,0.0,0.0,0.0,0.6096689105033875,0.0,0.0,0.0,28.549999237060547,27.65999984741211,31.770000457763672,29.43000030517578,28.790000915527344,30.719999313354492,23.8358211517334,0.0757320448756218,-0.1570439338684082,-0.00695347785949707,-1.1408320665359497,1777874410319810631
1777874410423414124,275.36651611328125,184.84033203125,81.75634765625,243.19189453125,85.92855072021484,74.61917114257812,0.0,0.0,0.0,0.0,0.0,0.0,0.0,0.0,0.6096689105033875,0.0,0.0,0.0,28.469999313354492,27.739999771118164,31.770000457763672,29.43000030517578,28.8700008392334,30.719999313354492,23.8358211517334,0.08056599646806717,-0.15731413662433624,-0.005690653808414936,-1.1411384344100952,1777874410419869558
1777874410523108569,275.36651611328125,184.84033203125,81.75634765625,243.19189453125,85.92855072021484,74.61917114257812,0.0,0.0,0.0,0.0,0.0,0.0,0.0,0.0,0.6162245273590088,0.0,0.0,0.0,28.549999237060547,27.65999984741211,31.690000534057617,29.510000228881836,28.790000915527344,30.719999313354492,23.8358211517334,0.07331505417823792,-0.1560731679201126,-0.007573763374239206,-1.139421820640564,1777874410519938431
1777874410622813959,275.36651611328125,184.84033203125,81.75634765625,243.19189453125,85.92855072021484,74.61917114257812,0.0,0.0,0.0,0.0,0.0,0.0,0.0,0.0,0.6358912587165833,0.0,0.0,0.0,28.469999313354492,27.739999771118164,31.690000534057617,29.43000030517578,28.8700008392334,30.639999389648438,23.8358211517334,0.07814902067184448,-0.1564292013645172,-0.00809152889996767,-1.1407442092895508,1777874410619994637
1777874410722548479,275.36651611328125,184.84033203125,81.75634765625,243.19189453125,85.92855072021484,74.61917114257812,0.0,0.0,0.0,0.0,0.0,0.0,0.0,0.0,0.5965577363967896,0.0,0.0,0.0,28.469999313354492,27.579999923706055,31.770000457763672,29.43000030517578,28.709999084472656,30.799999237060547,23.8358211517334,0.08056598901748657,-0.1575402319431305,-0.006963411811739206,-1.140175223350525,1777874410720016361
1777874410823275594,275.36651611328125,184.84033203125,81.75634765625,243.19189453125,85.92855072021484,74.61917114257812,0.0,0.0,0.0,0.0,0.0,0.0,0.0,0.0,0.6096689105033875,0.0,0.0,0.0,28.549999237060547,27.65999984741211,31.690000534057617,29.43000030517578,28.790000915527344,30.639999389648438,23.8358211517334,0.08217731863260269,-0.15745241940021515,-0.005056063178926706,-1.1412262916564941,1777874410820072696
1777874410922942502,275.36651611328125,184.84033203125,81.75634765625,243.19189453125,85.92855072021484,74.61917114257812,0.0,0.0,0.0,0.0,0.0,0.0,0.0,0.0,0.6162245273590088,0.0,0.0,0.0,28.469999313354492,27.65999984741211,31.770000457763672,29.43000030517578,28.8700008392334,30.719999313354492,23.8358211517334,0.08539995551109314,-0.15687623620033264,-0.008157491683959961,-1.1401203870773315,1777874410920134532
1777874411022676670,275.36651611328125,184.84033203125,81.75634765625,243.19189453125,85.92855072021484,74.61917114257812,0.0,0.0,0.0,0.0,0.0,0.0,0.0,0.0,0.5768910646438599,0.0,0.0,0.0,28.469999313354492,27.65999984741211,31.770000457763672,29.43000030517578,28.790000915527344,30.719999313354492,23.8358211517334,0.08701127767562866,-0.15767374634742737,-0.008967717178165913,-1.1404378414154053,1777874411020214571
1777874411123350563,275.36651611328125,184.84033203125,81.75634765625,243.19189453125,85.92855072021484,74.61917114257812,0.0,0.0,0.0,0.0,0.0,0.0,0.0,0.0,0.6227800846099854,0.0,0.0,0.0,28.549999237060547,27.65999984741211,31.770000457763672,29.350000381469727,28.8700008392334,30.639999389648438,23.8358211517334,0.08056599646806717,-0.1570582389831543,-0.007895231246948242,-1.1419049501419067,1777874411120275091
1777874411223082342,275.36651611328125,184.84033203125,81.75634765625,243.19189453125,85.92855072021484,74.61917114257812,0.0,0.0,0.0,0.0,0.0,0.0,0.0,0.0,0.6293357014656067,0.0,0.0,0.0,28.469999313354492,27.579999923706055,31.690000534057617,29.43000030517578,28.790000915527344,30.719999313354492,23.8358211517334,0.08459430187940598,-0.15802183747291565,-0.0063327946700155735,-1.1414304971694946,1777874411220350742
1777874411322801250,275.36651611328125,184.84033203125,81.75634765625,243.19189453125,85.92855072021484,74.61917114257812,0.0,0.0,0.0,0.0,0.0,0.0,0.0,0.0,0.6490023732185364,0.0,0.0,0.0,28.469999313354492,27.65999984741211,31.690000534057617,29.510000228881836,28.790000915527344,30.719999313354492,23.8358211517334,0.07814902067184448,-0.1569533348083496,-0.005472103599458933,-1.1403313875198364,1777874411320411947
1777874411422483566,275.36651611328125,184.84033203125,81.75634765625,243.19189453125,85.92855072021484,74.61917114257812,0.0,0.0,0.0,0.0,0.0,0.0,0.0,0.0,0.6162245273590088,0.0,0.0,0.0,28.469999313354492,27.739999771118164,31.690000534057617,29.43000030517578,28.790000915527344,30.719999313354492,23.8358211517334,0.0757320448756218,-0.15593448281288147,-0.005902449134737253,-1.1419049501419067,1777874411420476190
1777874411523203440,275.36651611328125,184.84033203125,81.75634765625,243.19189453125,85.92855072021484,74.61917114257812,0.0,0.0,0.0,0.0,0.0,0.0,0.0,0.0,0.6162245273590088,0.0,0.0,0.0,28.469999313354492,27.579999923706055,31.770000457763672,29.43000030517578,28.8700008392334,30.719999313354492,23.8358211517334,0.07976034283638,-0.15725532174110413,-0.0067524113692343235,-1.1382849216461182,1777874411520531322
1777874411622928275,275.36651611328125,184.84033203125,81.75634765625,243.19189453125,85.92855072021484,74.61917114257812,0.0,0.0,0.0,0.0,0.0,0.0,0.0,0.0,0.5965577363967896,0.0,0.0,0.0,28.549999237060547,27.739999771118164,31.770000457763672,29.350000381469727,28.8700008392334,30.639999389648438,23.8358211517334,0.07734335958957672,-0.15733559429645538,-0.008420148864388466,-1.139941930770874,1777874411620571064
1777874411722620961,275.36651611328125,184.84033203125,81.75634765625,243.19189453125,85.92855072021484,74.61917114257812,0.0,0.0,0.0,0.0,0.0,0.0,0.0,0.0,0.5900022387504578,0.0,0.0,0.0,28.549999237060547,27.739999771118164,31.610000610351562,29.43000030517578,28.790000915527344,30.719999313354492,23.8358211517334,0.07895468175411224,-0.1566934585571289,-0.007500648498535156,-1.1408193111419678,1777874411720657900
1777874411823387409,275.36651611328125,184.84033203125,81.75634765625,243.19189453125,85.92855072021484,74.61917114257812,0.0,0.0,0.0,0.0,0.0,0.0,0.0,0.0,0.5834466218948364,0.0,0.0,0.0,28.549999237060547,27.65999984741211,31.850000381469727,29.350000381469727,28.790000915527344,30.799999237060547,23.8358211517334,0.0757320374250412,-0.15742619335651398,-0.004282394889742136,-1.139574408531189,1777874411820703569
1777874411923062984,275.36651611328125,184.84033203125,81.75634765625,243.19189453125,85.92855072021484,74.61917114257812,0.0,0.0,0.0,0.0,0.0,0.0,0.0,0.0,0.6162245273590088,0.0,0.0,0.0,28.549999237060547,27.65999984741211,31.770000457763672,29.43000030517578,28.8700008392334,30.719999313354492,23.8358211517334,0.07976034283638,-0.15525737404823303,-0.007313092239201069,-1.1405622959136963,1777874411920805367
1777874412022768300,275.36651611328125,184.84033203125,81.75634765625,243.19189453125,85.92855072021484,74.61917114257812,0.0,0.0,0.0,0.0,0.0,0.0,0.0,0.0,0.5900022387504578,0.0,0.0,0.0,28.469999313354492,27.65999984741211,31.690000534057617,29.43000030517578,28.790000915527344,30.719999313354492,23.8358211517334,0.07492637634277344,-0.15524864196777344,-0.007596810348331928,-1.141248106956482,1777874412020859369
1777874412122465042,275.36651611328125,184.84033203125,81.75634765625,243.19189453125,85.92855072021484,74.61917114257812,0.0,0.0,0.0,0.0,0.0,0.0,0.0,0.0,0.6162245273590088,0.0,0.0,0.0,28.549999237060547,27.65999984741211,31.770000457763672,29.510000228881836,28.790000915527344,30.719999313354492,23.8358211517334,0.07976034283638,-0.15703678131103516,-0.008478561416268349,-1.1397886276245117,1777874412120931538
1777874412223197231,275.36651611328125,184.84033203125,81.75634765625,243.19189453125,85.92855072021484,74.61917114257812,0.0,0.0,0.0,0.0,0.0,0.0,0.0,0.0,0.6096689105033875,0.0,0.0,0.0,28.469999313354492,27.65999984741211,31.690000534057617,29.510000228881836,28.8700008392334,30.799999237060547,23.8358211517334,0.07814902067184448,-0.1552049219608307,-0.0095367431640625,-1.1418596506118774,1777874412220982558
1777874412322895566,275.36651611328125,184.84033203125,81.75634765625,243.19189453125,85.92855072021484,74.61917114257812,0.0,0.0,0.0,0.0,0.0,0.0,0.0,0.0,0.6162245273590088,0.0,0.0,0.0,28.389999389648438,27.65999984741211,31.690000534057617,29.43000030517578,28.8700008392334,30.639999389648438,23.8358211517334,0.08217731863260269,-0.157506063580513,-0.007982254028320312,-1.1387813091278076,1777874412321026097
1777874412422608122,275.36651611328125,184.84033203125,81.75634765625,243.19189453125,85.92855072021484,74.61917114257812,0.0,0.0,0.0,0.0,0.0,0.0,0.0,0.0,0.6227800846099854,0.0,0.0,0.0,28.469999313354492,27.65999984741211,31.770000457763672,29.43000030517578,28.709999084472656,30.719999313354492,23.8358211517334,0.07734335958957672,-0.15683968365192413,-0.005515416152775288,-1.1396205425262451,1777874412421099618
1777874412523313885,275.36651611328125,184.84033203125,81.75634765625,243.19189453125,85.92855072021484,74.61917114257812,0.0,0.0,0.0,0.0,0.0,0.0,0.0,0.0,0.6555579900741577,0.0,0.0,0.0,28.549999237060547,27.65999984741211,31.770000457763672,29.350000381469727,28.8700008392334,30.639999389648438,23.8358211517334,0.07734335958957672,-0.15605130791664124,-0.008879899978637695,-1.140481948852539,1777874412521178694
1777874412623022127,275.36651611328125,184.84033203125,81.75634765625,243.19189453125,85.92855072021484,74.61917114257812,0.0,0.0,0.0,0.0,0.0,0.0,0.0,0.0,0.5900022387504578,0.0,0.0,0.0,28.549999237060547,27.65999984741211,31.770000457763672,29.43000030517578,28.790000915527344,30.719999313354492,23.8358211517334,0.0757320374250412,-0.1568833887577057,-0.006106694228947163,-1.1406786441802979,1777874412621215400
1777874412722750091,275.36651611328125,184.84033203125,81.75634765625,243.19189453125,85.92855072021484,74.61917114257812,0.0,0.0,0.0,0.0,0.0,0.0,0.0,0.0,0.6096689105033875,0.0,0.0,0.0,28.469999313354492,27.65999984741211,31.610000610351562,29.43000030517578,28.709999084472656,30.799999237060547,23.8358211517334,0.08217731863260269,-0.1566060334444046,-0.004793007858097553,-1.1409063339233398,1777874412721305198
1777874412822678278,275.36651611328125,184.84033203125,81.75634765625,243.19189453125,85.92855072021484,74.61917114257812,0.0,0.0,0.0,0.0,0.0,0.0,0.0,0.0,0.6031133532524109,0.0,0.0,0.0,28.549999237060547,27.65999984741211,31.690000534057617,29.510000228881836,28.790000915527344,30.719999313354492,23.8358211517334,0.0821773111820221,-0.15729546546936035,-0.007640520576387644,-1.1406786441802979,1777874412821367034
1777874412923151467,275.36651611328125,184.84033203125,81.75634765625,243.19189453125,85.92855072021484,74.61917114257812,0.0,0.0,0.0,0.0,0.0,0.0,0.0,0.0,0.6162245273590088,0.0,0.0,0.0,28.469999313354492,27.65999984741211,31.690000534057617,29.43000030517578,28.8700008392334,30.719999313354492,23.8358211517334,0.07653769850730896,-0.15776634216308594,-0.007225672248750925,-1.140182375907898,1777874412921453425
1777874413022860319,275.36651611328125,184.84033203125,81.75634765625,243.19189453125,85.92855072021484,74.61917114257812,0.0,0.0,0.0,0.0,0.0,0.0,0.0,0.0,0.6031133532524109,0.0,0.0,0.0,28.549999237060547,27.739999771118164,31.690000534057617,29.43000030517578,28.790000915527344,30.799999237060547,23.8358211517334,0.0757320374250412,-0.15670815110206604,-0.007121165283024311,-1.1402336359024048,1777874413021519742
1777874413122565098,275.36651611328125,184.84033203125,81.75634765625,243.19189453125,85.92855072021484,74.61917114257812,0.0,0.0,0.0,0.0,0.0,0.0,0.0,0.0,0.6031133532524109,0.0,0.0,0.0,28.549999237060547,27.65999984741211,31.770000457763672,29.350000381469727,28.790000915527344,30.719999313354492,23.836538314819336,0.07895467430353165,-0.1571897566318512,-0.007113615516573191,-1.1402006149291992,1777874413121588781
1777874413223316695,275.36651611328125,184.84033203125,81.75634765625,243.19189453125,85.92855072021484,74.61917114257812,0.0,0.0,0.0,0.0,0.0,0.0,0.0,0.0,0.6227800846099854,0.0,0.0,0.0,28.469999313354492,27.65999984741211,31.690000534057617,29.350000381469727,28.8700008392334,30.799999237060547,23.836538314819336,0.07814902067184448,-0.15625476837158203,-0.008194048888981342,-1.1413136720657349,1777874413221652264
1777874413322695399,275.36651611328125,184.84033203125,81.75634765625,243.19189453125,85.92855072021484,74.61917114257812,0.0,0.0,0.0,0.0,0.0,0.0,0.0,0.0,0.5834466218948364,0.0,0.0,0.0,28.549999237060547,27.739999771118164,31.770000457763672,29.510000228881836,28.790000915527344,30.799999237060547,23.836538314819336,0.07895467430353165,-0.15733161568641663,-0.006585121154785156,-1.1397738456726074,1777874413321721711
1777874413422754419,275.36651611328125,184.84033203125,81.75634765625,243.19189453125,85.92855072021484,74.61917114257812,0.0,0.0,0.0,0.0,0.0,0.0,0.0,0.0,0.6162245273590088,0.0,0.0,0.0,28.469999313354492,27.65999984741211,31.770000457763672,29.43000030517578,28.790000915527344,30.799999237060547,23.836538314819336,0.07814902067184448,-0.15775878727436066,-0.008894601836800575,-1.1415473222732544,1777874413421796417
1777874413523388034,275.36651611328125,184.84033203125,81.75634765625,243.19189453125,85.92855072021484,74.61917114257812,0.0,0.0,0.0,0.0,0.0,0.0,0.0,0.0,0.5244463682174683,0.0,0.0,0.0,28.549999237060547,27.65999984741211,31.690000534057617,29.510000228881836,28.790000915527344,30.719999313354492,23.836538314819336,0.08137165755033493,-0.1577957421541214,-0.00961701013147831,-1.1393800973892212,1777874413521861437
1777874413623103183,275.36651611328125,184.84033203125,81.75634765625,243.19189453125,85.92855072021484,74.61917114257812,0.0,0.0,0.0,0.0,0.0,0.0,0.0,0.0,0.6227800846099854,0.0,0.0,0.0,28.469999313354492,27.579999923706055,31.690000534057617,29.43000030517578,28.790000915527344,30.719999313354492,23.836538314819336,0.07653769105672836,-0.15832820534706116,-0.009485483169555664,-1.1397854089736938,1777874413621900180
1777874413722822462,275.36651611328125,184.84033203125,81.75634765625,243.19189453125,85.92855072021484,74.61917114257812,0.0,0.0,0.0,0.0,0.0,0.0,0.0,0.0,0.6227800846099854,0.0,0.0,0.0,28.549999237060547,27.65999984741211,31.770000457763672,29.350000381469727,28.790000915527344,30.719999313354492,23.836538314819336,0.07895468175411224,-0.15717864036560059,-0.009543895721435547,-1.1413136720657349,1777874413721987275
1777874413822973224,275.36651611328125,184.84033203125,81.75634765625,243.19189453125,85.92855072021484,74.61917114257812,0.0,0.0,0.0,0.0,0.0,0.0,0.0,0.0,0.6162245273590088,0.0,0.0,0.0,28.469999313354492,27.65999984741211,31.770000457763672,29.43000030517578,28.790000915527344,30.719999313354492,23.836538314819336,0.07976034283638,-0.15666444599628448,-0.006759961135685444,-1.1406350135803223,1777874413822052351
1777874413923241597,275.36651611328125,184.84033203125,81.75634765625,243.19189453125,85.92855072021484,74.61917114257812,0.0,0.0,0.0,0.0,0.0,0.0,0.0,0.0,0.6162245273590088,0.0,0.0,0.0,28.469999313354492,27.65999984741211,31.690000534057617,29.510000228881836,28.709999084472656,30.639999389648438,23.836538314819336,0.07653769850730896,-0.15741586685180664,-0.007325410842895508,-1.1419562101364136,1777874413922127094
1777874414022956783,275.36651611328125,184.84033203125,81.75634765625,243.19189453125,85.92855072021484,74.61917114257812,0.0,0.0,0.0,0.0,0.0,0.0,0.0,0.0,0.5900022387504578,0.0,0.0,0.0,28.549999237060547,27.65999984741211,31.770000457763672,29.43000030517578,28.790000915527344,30.799999237060547,23.836538314819336,0.07250940054655075,-0.15453338623046875,-0.007289250381290913,-1.1404744386672974,1777874414022189281
1777874414122656710,275.36651611328125,184.84033203125,81.75634765625,243.19189453125,85.92855072021484,74.61917114257812,0.0,0.0,0.0,0.0,0.0,0.0,0.0,0.0,0.6162245273590088,0.0,0.0,0.0,28.469999313354492,27.65999984741211,31.690000534057617,29.43000030517578,28.8700008392334,30.799999237060547,23.836538314819336,0.07976033538579941,-0.15635648369789124,-0.008829036727547646,-1.1400401592254639,1777874414122254320
1777874414223363917,275.36651611328125,184.84033203125,81.75634765625,243.19189453125,85.92855072021484,74.61917114257812,0.0,0.0,0.0,0.0,0.0,0.0,0.0,0.0,0.6096689105033875,0.0,0.0,0.0,28.469999313354492,27.65999984741211,31.770000457763672,29.43000030517578,28.8700008392334,30.719999313354492,23.836538314819336,0.07734335958957672,-0.15582521259784698,-0.006646712310612202,-1.1407665014266968,1777874414222317989
1777874414323315827,275.36651611328125,184.84033203125,81.75634765625,243.19189453125,85.92855072021484,74.61917114257812,0.0,0.0,0.0,0.0,0.0,0.0,0.0,0.0,0.6227800846099854,0.0,0.0,0.0,28.469999313354492,27.65999984741211,31.690000534057617,29.43000030517578,28.790000915527344,30.799999237060547,23.836538314819336,0.07653769850730896,-0.15578150749206543,-0.0077350931242108345,-1.1411018371582031,1777874414322385009
1777874414422796771,275.36651611328125,184.84033203125,81.75634765625,243.19189453125,85.92855072021484,74.61917114257812,0.0,0.0,0.0,0.0,0.0,0.0,0.0,0.0,0.6096689105033875,0.0,0.0,0.0,28.469999313354492,27.65999984741211,31.850000381469727,29.510000228881836,28.709999084472656,30.719999313354492,23.836538314819336,0.07734335958957672,-0.15720446407794952,-0.004194974899291992,-1.1392266750335693,1777874414422442178
1777874414522507217,275.36651611328125,184.84033203125,81.75634765625,243.19189453125,85.92855072021484,74.61917114257812,0.0,0.0,0.0,0.0,0.0,0.0,0.0,0.0,0.6031133532524109,0.0,0.0,0.0,28.469999313354492,27.5,31.690000534057617,29.43000030517578,28.790000915527344,30.719999313354492,23.836538314819336,0.0757320374250412,-0.15805840492248535,-0.009164412505924702,-1.140000343322754,1777874414522512199
1777874414623206202,275.36651611328125,184.84033203125,81.75634765625,243.19189453125,85.92855072021484,74.61917114257812,0.0,0.0,0.0,0.0,0.0,0.0,0.0,0.0,0.6227800846099854,0.0,0.0,0.0,28.549999237060547,27.739999771118164,31.770000457763672,29.43000030517578,28.8700008392334,30.719999313354492,23.836538314819336,0.07734335958957672,-0.15668392181396484,-0.007851123809814453,-1.14084792137146,1777874414622578145
1777874414722941203,275.36651611328125,184.84033203125,81.75634765625,243.19189453125,85.92855072021484,74.61917114257812,0.0,0.0,0.0,0.0,0.0,0.0,0.0,0.0,0.6031133532524109,0.0,0.0,0.0,28.549999237060547,27.65999984741211,31.690000534057617,29.43000030517578,28.790000915527344,30.799999237060547,23.836538314819336,0.08781693875789642,-0.15616098046302795,-0.008768637664616108,-1.140817403793335,1777874414722641462
1777874414822639149,275.36651611328125,184.84033203125,81.75634765625,243.19189453125,85.92855072021484,74.61917114257812,0.0,0.0,0.0,0.0,0.0,0.0,0.0,0.0,0.6031133532524109,0.0,0.0,0.0,28.549999237060547,27.65999984741211,31.690000534057617,29.43000030517578,28.790000915527344,30.799999237060547,23.836538314819336,0.08781693875789642,-0.15616098046302795,-0.008768637664616108,-1.140817403793335,1777874414722641462
1777874414923360412,275.36651611328125,184.84033203125,81.75634765625,243.19189453125,85.92855072021484,74.61917114257812,0.0,0.0,0.0,0.0,0.0,0.0,0.0,0.0,0.6424468159675598,0.0,0.0,0.0,28.469999313354492,27.65999984741211,31.690000534057617,29.43000030517578,28.790000915527344,30.719999313354492,23.836538314819336,0.0821773111820221,-0.15699267387390137,-0.009792247787117958,-1.140211820602417,1777874414922798929
1777874415023133376,275.36651611328125,184.84033203125,81.75634765625,243.19189453125,85.92855072021484,74.61917114257812,0.0,0.0,0.0,0.0,0.0,0.0,0.0,0.0,0.6096689105033875,0.0,0.0,0.0,28.469999313354492,27.579999923706055,31.690000534057617,29.43000030517578,28.790000915527344,30.719999313354492,23.836538314819336,0.07814902067184448,-0.1559126377105713,-0.007821718230843544,-1.140051245689392,1777874415022847616
1777874415122764488,275.36651611328125,184.84033203125,81.75634765625,243.19189453125,85.92855072021484,74.61917114257812,0.0,0.0,0.0,0.0,0.0,0.0,0.0,0.0,0.6096689105033875,0.0,0.0,0.0,28.469999313354492,27.579999923706055,31.690000534057617,29.43000030517578,28.790000915527344,30.719999313354492,23.836538314819336,0.07814902067184448,-0.1559126377105713,-0.007821718230843544,-1.140051245689392,1777874415022847616
1777874415222460341,275.36651611328125,184.84033203125,81.75634765625,243.19189453125,85.92855072021484,74.61917114257812,0.0,0.0,0.0,0.0,0.0,0.0,0.0,0.0,0.6031133532524109,0.0,0.0,0.0,28.469999313354492,27.65999984741211,31.770000457763672,29.43000030517578,28.790000915527344,30.799999237060547,23.836538314819336,0.08298297226428986,-0.1568690836429596,-0.008280673995614052,-1.1412334442138672,1777874415122886229
1777874415323176086,275.36651611328125,184.84033203125,81.75634765625,243.19189453125,85.92855072021484,74.61917114257812,0.0,0.0,0.0,0.0,0.0,0.0,0.0,0.0,0.6031133532524109,0.0,0.0,0.0,28.549999237060547,27.65999984741211,31.690000534057617,29.43000030517578,28.8700008392334,30.799999237060547,23.836538314819336,0.0757320374250412,-0.15628495812416077,-0.00989675521850586,-1.1405622959136963,1777874415323040771
1777874415422881420,275.36651611328125,184.84033203125,81.75634765625,243.19189453125,85.92855072021484,74.61917114257812,0.0,0.0,0.0,0.0,0.0,0.0,0.0,0.0,0.6031133532524109,0.0,0.0,0.0,28.549999237060547,27.65999984741211,31.690000534057617,29.43000030517578,28.8700008392334,30.799999237060547,23.836538314819336,0.0757320374250412,-0.15628495812416077,-0.00989675521850586,-1.1405622959136963,1777874415323040771
1777874415522592051,275.36651611328125,184.84033203125,81.75634765625,243.19189453125,85.92855072021484,74.61917114257812,0.0,0.0,0.0,0.0,0.0,0.0,0.0,0.0,0.6031133532524109,0.0,0.0,0.0,28.549999237060547,27.739999771118164,31.770000457763672,29.43000030517578,28.790000915527344,30.799999237060547,23.836538314819336,0.0757320374250412,-0.1558760702610016,-0.0074712433852255344,-1.1408395767211914,1777874415423101476
1777874415623343536,275.36651611328125,184.84033203125,81.75634765625,243.19189453125,85.92855072021484,74.61917114257812,0.0,0.0,0.0,0.0,0.0,0.0,0.0,0.0,0.5965577363967896,0.0,0.0,0.0,28.469999313354492,27.579999923706055,31.690000534057617,29.43000030517578,28.790000915527344,30.639999389648438,23.836538314819336,0.07653769105672836,-0.15673477947711945,-0.0065517425537109375,-1.1401422023773193,1777874415623242888
1777874415723011759,275.36651611328125,184.84033203125,81.75634765625,243.19189453125,85.92855072021484,74.61917114257812,0.0,0.0,0.0,0.0,0.0,0.0,0.0,0.0,0.5965577363967896,0.0,0.0,0.0,28.469999313354492,27.579999923706055,31.690000534057617,29.43000030517578,28.790000915527344,30.639999389648438,23.836538314819336,0.07653769105672836,-0.15673477947711945,-0.0065517425537109375,-1.1401422023773193,1777874415623242888
1777874415822739668,275.36651611328125,184.84033203125,81.75634765625,243.19189453125,85.92855072021484,74.61917114257812,0.0,0.0,0.0,0.0,0.0,0.0,0.0,0.0,0.6031133532524109,0.0,0.0,0.0,28.549999237060547,27.65999984741211,31.690000534057617,29.43000030517578,28.790000915527344,30.719999313354492,23.836538314819336,0.0757320374250412,-0.1571897566318512,-0.005231300834566355,-1.140708088874817,1777874415723306760
1777874415922417447,275.36651611328125,184.84033203125,81.75634765625,243.19189453125,85.92855072021484,74.61917114257812,0.0,0.0,0.0,0.0,0.0,0.0,0.0,0.0,0.6031133532524109,0.0,0.0,0.0,28.469999313354492,27.65999984741211,31.770000457763672,29.43000030517578,28.8700008392334,30.719999313354492,23.836538314819336,0.07895468175411224,-0.155022531747818,-0.004691282752901316,-1.1418536901474,1777874415823367151
1777874416023127543,275.36651611328125,184.84033203125,81.75634765625,243.19189453125,85.92855072021484,74.61917114257812,0.0,0.0,0.0,0.0,0.0,0.0,0.0,0.0,0.6031133532524109,0.0,0.0,0.0,28.469999313354492,27.65999984741211,31.770000457763672,29.350000381469727,28.790000915527344,30.639999389648438,23.836538314819336,0.07734335213899612,-0.1568833887577057,-0.0057637691497802734,-1.1409488916397095,1777874415923447246
1777874416122861748,275.36651611328125,184.84033203125,81.75634765625,243.19189453125,85.92855072021484,74.61917114257812,0.0,0.0,0.0,0.0,0.0,0.0,0.0,0.0,0.6096689105033875,0.0,0.0,0.0,28.469999313354492,27.65999984741211,31.770000457763672,29.350000381469727,28.790000915527344,30.719999313354492,23.836538314819336,0.07734335958957672,-0.15635767579078674,-0.00910639762878418,-1.139654278755188,1777874416023497841
1777874416222535138,275.36651611328125,184.84033203125,81.75634765625,243.19189453125,85.92855072021484,74.61917114257812,0.0,0.0,0.0,0.0,0.0,0.0,0.0,0.0,0.5965577363967896,0.0,0.0,0.0,28.549999237060547,27.739999771118164,31.610000610351562,29.43000030517578,28.790000915527344,30.719999313354492,23.836538314819336,0.0757320374250412,-0.15627622604370117,-0.004661877639591694,-1.1400365829467773,1777874416123557824
1777874416323261253,275.36651611328125,184.84033203125,81.75634765625,243.19189453125,85.92855072021484,74.61917114257812,0.0,0.0,0.0,0.0,0.0,0.0,0.0,0.0,0.6096689105033875,0.0,0.0,0.0,28.469999313354492,27.579999923706055,31.690000534057617,29.43000030517578,28.790000915527344,30.799999237060547,23.836538314819336,0.07653769850730896,-0.15712419152259827,-0.0069491066969931126,-1.1405328512191772,1777874416223620400
1777874416422970347,275.36651611328125,184.84033203125,81.75634765625,243.19189453125,85.92855072021484,74.61917114257812,0.0,0.0,0.0,0.0,0.0,0.0,0.0,0.0,0.6686691641807556,0.0,0.0,0.0,28.469999313354492,27.579999923706055,31.690000534057617,29.510000228881836,28.790000915527344,30.799999237060547,23.836538314819336,0.09345655888319016,-0.1575183868408203,-0.008594989776611328,-1.1405181884765625,1777874416323676995
1777874416522671348,275.36651611328125,184.84033203125,81.75634765625,243.19189453125,85.92855072021484,74.61917114257812,0.0,0.0,0.0,0.0,0.0,0.0,0.0,0.0,0.6096689105033875,0.0,0.0,0.0,28.469999313354492,27.65999984741211,31.770000457763672,29.43000030517578,28.790000915527344,30.639999389648438,23.836538314819336,0.07492637634277344,-0.1584303379058838,-0.0077633061446249485,-1.1399049758911133,1777874416423754256
1777874416622439090,275.36651611328125,184.84033203125,81.75634765625,243.19189453125,85.92855072021484,74.61917114257812,0.0,0.0,0.0,0.0,0.0,0.0,0.0,0.0,0.5965577363967896,0.0,0.0,0.0,28.469999313354492,27.739999771118164,31.690000534057617,29.350000381469727,28.8700008392334,30.799999237060547,23.836538314819336,0.07734335213899612,-0.1567884236574173,-0.00658869743347168,-1.1405253410339355,1777874416523811721
1777874416723104834,275.36651611328125,184.84033203125,81.75634765625,243.19189453125,85.92855072021484,74.61917114257812,0.0,0.0,0.0,0.0,0.0,0.0,0.0,0.0,0.5965577363967896,0.0,0.0,0.0,28.549999237060547,27.739999771118164,31.770000457763672,29.510000228881836,28.790000915527344,30.719999313354492,23.836538314819336,0.07331505417823792,-0.15683212876319885,-0.0070043401792645454,-1.1397345066070557,1777874416623859908
1777874416822800280,275.36651611328125,184.84033203125,81.75634765625,243.19189453125,85.92855072021484,74.61917114257812,0.0,0.0,0.0,0.0,0.0,0.0,0.0,0.0,0.6031133532524109,0.0,0.0,0.0,28.469999313354492,27.65999984741211,31.690000534057617,29.43000030517578,28.790000915527344,30.799999237060547,23.836538314819336,0.0821773111820221,-0.15720804035663605,-0.009915828704833984,-1.1403138637542725,1777874416723939725
1777874416922508151,275.36651611328125,184.84033203125,81.75634765625,243.19189453125,85.92855072021484,74.61917114257812,0.0,0.0,0.0,0.0,0.0,0.0,0.0,0.0,0.6096689105033875,0.0,0.0,0.0,28.549999237060547,27.65999984741211,31.610000610351562,29.350000381469727,28.8700008392334,30.719999313354492,23.836538314819336,0.07734335958957672,-0.15736499428749084,-0.005740721710026264,-1.1404669284820557,1777874416824004024
1777874417023223377,275.36651611328125,184.84033203125,81.75634765625,243.19189453125,85.92855072021484,74.61917114257812,0.0,0.0,0.0,0.0,0.0,0.0,0.0,0.0,0.6162245273590088,0.0,0.0,0.0,28.469999313354492,27.739999771118164,31.690000534057617,29.510000228881836,28.8700008392334,30.799999237060547,23.836538314819336,0.07976033538579941,-0.15774448215961456,-0.0064059095457196236,-1.1400730609893799,1777874416924027563
1777874417122934582,275.36651611328125,184.84033203125,81.75634765625,243.19189453125,85.92855072021484,74.61917114257812,0.0,0.0,0.0,0.0,0.0,0.0,0.0,0.0,0.6096689105033875,0.0,0.0,0.0,28.389999389648438,27.579999923706055,31.770000457763672,29.350000381469727,28.790000915527344,30.719999313354492,23.836538314819336,0.07895468175411224,-0.15672285854816437,-0.008908906951546669,-1.1410800218582153,1777874417024079139
1777874417222643768,275.36651611328125,184.84033203125,81.75634765625,243.19189453125,85.92855072021484,74.61917114257812,0.0,0.0,0.0,0.0,0.0,0.0,0.0,0.0,0.6096689105033875,0.0,0.0,0.0,28.469999313354492,27.65999984741211,31.690000534057617,29.43000030517578,28.709999084472656,30.639999389648438,23.836538314819336,0.07492637634277344,-0.15593448281288147,-0.009186267852783203,-1.140877366065979,1777874417124141900
1777874417323371254,275.36651611328125,184.84033203125,81.75634765625,243.19189453125,85.92855072021484,74.61917114257812,0.0,0.0,0.0,0.0,0.0,0.0,0.0,0.0,0.6358912587165833,0.0,0.0,0.0,28.469999313354492,27.579999923706055,31.770000457763672,29.510000228881836,28.790000915527344,30.719999313354492,23.836538314819336,0.07653770595788956,-0.1568659096956253,-0.0057125091552734375,-1.1399562358856201,1777874417224199569
1777874417423065014,275.36651611328125,184.84033203125,81.75634765625,243.19189453125,85.92855072021484,74.61917114257812,0.0,0.0,0.0,0.0,0.0,0.0,0.0,0.0,0.5965577363967896,0.0,0.0,0.0,28.469999313354492,27.65999984741211,31.770000457763672,29.43000030517578,28.8700008392334,30.719999313354492,23.836538314819336,0.09748485684394836,-0.1561315804719925,-0.006024837493896484,-1.140708088874817,1777874417324263145
1777874417522768274,275.36651611328125,184.84033203125,81.75634765625,243.19189453125,85.92855072021484,74.61917114257812,0.0,0.0,0.0,0.0,0.0,0.0,0.0,0.0,0.6031133532524109,0.0,0.0,0.0,28.549999237060547,27.65999984741211,31.690000534057617,29.43000030517578,28.790000915527344,30.799999237060547,23.836538314819336,0.07895467430353165,-0.15783944725990295,-0.006281931884586811,-1.1398175954818726,1777874417424323221
1777874417622488201,275.36651611328125,184.84033203125,81.75634765625,243.19189453125,85.92855072021484,74.61917114257812,0.0,0.0,0.0,0.0,0.0,0.0,0.0,0.0,0.6227800846099854,0.0,0.0,0.0,28.469999313354492,27.65999984741211,31.690000534057617,29.43000030517578,28.790000915527344,30.639999389648438,23.836538314819336,0.08217732608318329,-0.15724101662635803,-0.009259382262825966,-1.1395962238311768,1777874417524390927
1777874417723189205,275.36651611328125,184.84033203125,81.75634765625,243.19189453125,85.92855072021484,74.61917114257812,0.0,0.0,0.0,0.0,0.0,0.0,0.0,0.0,0.5965577363967896,0.0,0.0,0.0,28.469999313354492,27.65999984741211,31.770000457763672,29.43000030517578,28.790000915527344,30.719999313354492,23.836538314819336,0.08137165755033493,-0.15592694282531738,-0.010076761245727539,-1.1413867473602295,1777874417624437707
1777874417822896039,275.36651611328125,184.84033203125,81.75634765625,243.19189453125,85.92855072021484,74.61917114257812,0.0,0.0,0.0,0.0,0.0,0.0,0.0,0.0,0.701447069644928,0.0,0.0,0.0,28.549999237060547,27.65999984741211,31.770000457763672,29.350000381469727,28.8700008392334,30.719999313354492,23.836538314819336,0.07653769850730896,-0.1558983325958252,-0.007633368019014597,-1.140584111213684,1777874417724516209
1777874417922641392,275.36651611328125,184.84033203125,81.75634765625,243.19189453125,85.92855072021484,74.61917114257812,0.0,0.0,0.0,0.0,0.0,0.0,0.0,0.0,0.6031133532524109,0.0,0.0,0.0,28.469999313354492,27.739999771118164,31.770000457763672,29.43000030517578,28.790000915527344,30.799999237060547,23.836538314819336,0.0757320374250412,-0.15670815110206604,-0.007602770812809467,-1.1404041051864624,1777874417824575451
1777874418023311341,275.36651611328125,184.84033203125,81.75634765625,243.19189453125,85.92855072021484,74.61917114257812,0.0,0.0,0.0,0.0,0.0,0.0,0.0,0.0,0.5768910646438599,0.0,0.0,0.0,28.469999313354492,27.65999984741211,31.770000457763672,29.43000030517578,28.790000915527344,30.719999313354492,23.836538314819336,0.07653769850730896,-0.1567153036594391,-0.008405447006225586,-1.1397007703781128,1777874417924647917
1777874418123021564,275.36651611328125,184.84033203125,81.75634765625,243.19189453125,85.92855072021484,74.61917114257812,0.0,0.0,0.0,0.0,0.0,0.0,0.0,0.0,0.6490023732185364,0.0,0.0,0.0,28.469999313354492,27.65999984741211,31.770000457763672,29.43000030517578,28.8700008392334,30.719999313354492,23.836538314819336,0.07492637634277344,-0.15554070472717285,-0.008325179107487202,-1.1404839754104614,1777874418024699622
1777874418222788269,275.36651611328125,184.84033203125,81.75634765625,243.19189453125,85.92855072021484,74.61917114257812,0.0,0.0,0.0,0.0,0.0,0.0,0.0,0.0,0.5900022387504578,0.0,0.0,0.0,28.549999237060547,27.65999984741211,31.690000534057617,29.43000030517578,28.709999084472656,30.719999313354492,23.835702896118164,0.07653769850730896,-0.1575501710176468,-0.009190638549625874,-1.1397886276245117,1777874418124769847
1777874418322442288,275.36651611328125,184.84033203125,81.75634765625,243.19189453125,85.92855072021484,74.61917114257812,0.0,0.0,0.0,0.0,0.0,0.0,0.0,0.0,0.6227800846099854,0.0,0.0,0.0,28.469999313354492,27.579999923706055,31.770000457763672,29.510000228881836,28.790000915527344,30.719999313354492,23.835702896118164,0.07976034283638,-0.15730658173561096,-0.007145404815673828,-1.141167402267456,1777874418224834386
1777874418423152107,275.36651611328125,184.84033203125,81.75634765625,243.19189453125,85.92855072021484,74.61917114257812,0.0,0.0,0.0,0.0,0.0,0.0,0.0,0.0,0.6293357014656067,0.0,0.0,0.0,28.469999313354492,27.65999984741211,31.690000534057617,29.43000030517578,28.8700008392334,30.719999313354492,23.835702896118164,0.0757320374250412,-0.15737254917621613,-0.006880362518131733,-1.1404378414154053,1777874418324896777
1777874418522852997,275.36651611328125,184.84033203125,81.75634765625,243.19189453125,85.92855072021484,74.61917114257812,0.0,0.0,0.0,0.0,0.0,0.0,0.0,0.0,0.6031133532524109,0.0,0.0,0.0,28.549999237060547,27.579999923706055,31.770000457763672,29.43000030517578,28.8700008392334,30.719999313354492,23.835702896118164,0.07412071526050568,-0.15800714492797852,-0.00940521527081728,-1.139676570892334,1777874418424959890
1777874418622564368,275.36651611328125,184.84033203125,81.75634765625,243.19189453125,85.92855072021484,74.61917114257812,0.0,0.0,0.0,0.0,0.0,0.0,0.0,0.0,0.5637798309326172,0.0,0.0,0.0,28.549999237060547,27.65999984741211,31.690000534057617,29.350000381469727,28.8700008392334,30.719999313354492,23.835702896118164,0.07895468175411224,-0.1561383306980133,-0.006281931884586811,-1.1409413814544678,1777874418525016021
1777874418723269965,275.36651611328125,184.84033203125,81.75634765625,243.19189453125,85.92855072021484,74.61917114257812,0.0,0.0,0.0,0.0,0.0,0.0,0.0,0.0,0.6162245273590088,0.0,0.0,0.0,28.549999237060547,27.65999984741211,31.690000534057617,29.510000228881836,28.8700008392334,30.719999313354492,23.835702896118164,0.0757320374250412,-0.156022310256958,-0.007305939681828022,-1.1419267654418945,1777874418625096764
1777874418823007188,275.36651611328125,184.84033203125,81.75634765625,243.19189453125,85.92855072021484,74.61917114257812,0.0,0.0,0.0,0.0,0.0,0.0,0.0,0.0,0.6096689105033875,0.0,0.0,0.0,28.549999237060547,27.579999923706055,31.690000534057617,29.43000030517578,28.8700008392334,30.799999237060547,23.835702896118164,0.08701127767562866,-0.15653331577777863,-0.007179577834904194,-1.1393506526947021,1777874418725161822
1777874418922701911,275.36651611328125,184.84033203125,81.75634765625,243.19189453125,85.92855072021484,74.61917114257812,0.0,0.0,0.0,0.0,0.0,0.0,0.0,0.0,0.5965577363967896,0.0,0.0,0.0,28.549999237060547,27.65999984741211,31.770000457763672,29.43000030517578,28.790000915527344,30.719999313354492,23.835702896118164,0.07895467430353165,-0.15600760281085968,-0.0065958499908447266,-1.1419541835784912,1777874418825220491
1777874419023398786,275.36651611328125,184.84033203125,81.75634765625,243.19189453125,85.92855072021484,74.61917114257812,0.0,0.0,0.0,0.0,0.0,0.0,0.0,0.0,0.6621135473251343,0.0,0.0,0.0,28.469999313354492,27.739999771118164,31.770000457763672,29.43000030517578,28.790000915527344,30.719999313354492,23.835702896118164,0.07895468175411224,-0.15641450881958008,-0.006391207221895456,-1.14109468460083,1777874418925290678
1777874419123128268,275.36651611328125,184.84033203125,81.75634765625,243.19189453125,85.92855072021484,74.61917114257812,0.0,0.0,0.0,0.0,0.0,0.0,0.0,0.0,0.6293357014656067,0.0,0.0,0.0,28.469999313354492,27.65999984741211,31.690000534057617,29.43000030517578,28.8700008392334,30.799999237060547,23.835702896118164,0.0757320374250412,-0.15734314918518066,-0.0075093903578817844,-1.1397814750671387,1777874419025347087
1777874419222836380,275.36651611328125,184.84033203125,81.75634765625,243.19189453125,85.92855072021484,74.61917114257812,0.0,0.0,0.0,0.0,0.0,0.0,0.0,0.0,0.6096689105033875,0.0,0.0,0.0,28.469999313354492,27.65999984741211,31.770000457763672,29.510000228881836,28.790000915527344,30.719999313354492,23.835702896118164,0.07492637634277344,-0.1562996655702591,-0.009011030197143555,-1.1412334442138672,1777874419125421349
1777874419322527900,275.36651611328125,184.84033203125,81.75634765625,243.19189453125,85.92855072021484,74.61917114257812,0.0,0.0,0.0,0.0,0.0,0.0,0.0,0.0,0.6031133532524109,0.0,0.0,0.0,28.549999237060547,27.65999984741211,31.690000534057617,29.510000228881836,28.790000915527344,30.799999237060547,23.835702896118164,0.07653769850730896,-0.15654046833515167,-0.006931622512638569,-1.1402006149291992,1777874419225496258
1777874419423257182,275.36651611328125,184.84033203125,81.75634765625,243.19189453125,85.92855072021484,74.61917114257812,0.0,0.0,0.0,0.0,0.0,0.0,0.0,0.0,0.6031133532524109,0.0,0.0,0.0,28.549999237060547,27.739999771118164,31.770000457763672,29.510000228881836,28.790000915527344,30.719999313354492,23.835702896118164,0.07976033538579941,-0.15666444599628448,-0.006420612335205078,-1.1399272680282593,1777874419325573242
1777874419522964960,275.36651611328125,184.84033203125,81.75634765625,243.19189453125,85.92855072021484,74.61917114257812,0.0,0.0,0.0,0.0,0.0,0.0,0.0,0.0,0.6096689105033875,0.0,0.0,0.0,28.469999313354492,27.579999923706055,31.690000534057617,29.510000228881836,28.790000915527344,30.639999389648438,23.835702896118164,0.07895467430353165,-0.1561892032623291,-0.0075093903578817844,-1.1398978233337402,1777874419425653651
1777874419622681239,275.36651611328125,184.84033203125,81.75634765625,243.19189453125,85.92855072021484,74.61917114257812,0.0,0.0,0.0,0.0,0.0,0.0,0.0,0.0,0.6162245273590088,0.0,0.0,0.0,28.549999237060547,27.65999984741211,31.770000457763672,29.43000030517578,28.709999084472656,30.799999237060547,23.835702896118164,0.07653769850730896,-0.15594163537025452,-0.00828862190246582,-1.1405400037765503,1777874419525728820
1777874419722409852,275.36651611328125,184.84033203125,81.75634765625,243.19189453125,85.92855072021484,74.61917114257812,0.0,0.0,0.0,0.0,0.0,0.0,0.0,0.0,0.6096689105033875,0.0,0.0,0.0,28.549999237060547,27.65999984741211,32.09000015258789,29.43000030517578,28.709999084472656,30.799999237060547,23.835702896118164,0.08137165755033493,-0.15758395195007324,-0.007325410842895508,-1.1396205425262451,1777874419625811211
1777874419823142226,275.36651611328125,184.84033203125,81.75634765625,243.19189453125,85.92855072021484,74.61917114257812,0.0,0.0,0.0,0.0,0.0,0.0,0.0,0.0,0.6162245273590088,0.0,0.0,0.0,28.469999313354492,27.65999984741211,31.690000534057617,29.43000030517578,28.790000915527344,30.799999237060547,23.835702896118164,0.07734335213899612,-0.1585908681154251,-0.007639328483492136,-1.139312505722046,1777874419725897287
1777874419922799153,275.36651611328125,184.84033203125,81.75634765625,243.19189453125,85.92855072021484,74.61917114257812,0.0,0.0,0.0,0.0,0.0,0.0,0.0,0.0,0.6096689105033875,0.0,0.0,0.0,28.469999313354492,27.65999984741211,31.690000534057617,29.43000030517578,28.790000915527344,30.8799991607666,23.835702896118164,0.07976033538579941,-0.1563783437013626,-0.007456938270479441,-1.1386719942092896,1777874419825960900
1777874420022489376,275.36651611328125,184.84033203125,81.75634765625,243.19189453125,85.92855072021484,74.61917114257812,0.0,0.0,0.0,0.0,0.0,0.0,0.0,0.0,0.6293357014656067,0.0,0.0,0.0,28.469999313354492,27.579999923706055,31.610000610351562,29.43000030517578,28.790000915527344,30.719999313354492,23.835702896118164,0.08217731863260269,-0.15624840557575226,-0.009081363677978516,-1.1403210163116455,1777874419926020828
1777874420123214121,275.36651611328125,184.84033203125,81.75634765625,243.19189453125,85.92855072021484,74.61917114257812,0.0,0.0,0.0,0.0,0.0,0.0,0.0,0.0,0.6031133532524109,0.0,0.0,0.0,28.549999237060547,27.65999984741211,31.690000534057617,29.510000228881836,28.8700008392334,30.719999313354492,23.835702896118164,0.07492637634277344,-0.15762010216712952,-0.007361968047916889,-1.1405622959136963,1777874420026093979
1777874420222917362,275.36651611328125,184.84033203125,81.75634765625,243.19189453125,85.92855072021484,74.61917114257812,0.0,0.0,0.0,0.0,0.0,0.0,0.0,0.0,0.6162245273590088,0.0,0.0,0.0,28.469999313354492,27.65999984741211,31.690000534057617,29.43000030517578,28.8700008392334,30.639999389648438,23.835702896118164,0.07895468175411224,-0.1560441553592682,-0.0091425571590662,-1.1414523124694824,1777874420126184203
1777874420322610697,275.36651611328125,184.84033203125,81.75634765625,243.19189453125,85.92855072021484,74.61917114257812,0.0,0.0,0.0,0.0,0.0,0.0,0.0,0.0,0.6031133532524109,0.0,0.0,0.0,28.469999313354492,27.65999984741211,31.770000457763672,29.43000030517578,28.8700008392334,30.639999389648438,23.835702896118164,0.07814902067184448,-0.1568106710910797,-0.005588531494140625,-1.1402220726013184,1777874420226240964
1777874420423352867,275.36651611328125,184.84033203125,81.75634765625,243.19189453125,85.92855072021484,74.61917114257812,0.0,0.0,0.0,0.0,0.0,0.0,0.0,0.0,0.5637798309326172,0.0,0.0,0.0,28.469999313354492,27.65999984741211,31.690000534057617,29.510000228881836,28.8700008392334,30.719999313354492,23.835702896118164,0.08137166500091553,-0.1566402018070221,-0.005770126823335886,-1.1420655250549316,1777874420326285003
1777874420523046313,275.36651611328125,184.84033203125,81.75634765625,243.19189453125,85.92855072021484,74.61917114257812,0.0,0.0,0.0,0.0,0.0,0.0,0.0,0.0,0.5900022387504578,0.0,0.0,0.0,28.549999237060547,27.65999984741211,31.690000534057617,29.43000030517578,28.8700008392334,30.799999237060547,23.835702896118164,0.07653769850730896,-0.15659888088703156,-0.005953709129244089,-1.1409122943878174,1777874420426385487
1777874420622788647,275.36651611328125,184.84033203125,81.75634765625,243.19189453125,85.92855072021484,74.61917114257812,0.0,0.0,0.0,0.0,0.0,0.0,0.0,0.0,0.5834466218948364,0.0,0.0,0.0,28.469999313354492,27.65999984741211,31.690000534057617,29.43000030517578,28.790000915527344,30.719999313354492,23.835702896118164,0.09184523671865463,-0.15668630599975586,-0.008836189284920692,-1.13893461227417,1777874420526467619
1777874420722474815,275.36651611328125,184.84033203125,81.75634765625,243.19189453125,85.92855072021484,74.61917114257812,0.0,0.0,0.0,0.0,0.0,0.0,0.0,0.0,0.5965577363967896,0.0,0.0,0.0,28.549999237060547,27.65999984741211,31.770000457763672,29.43000030517578,28.790000915527344,30.719999313354492,23.835702896118164,0.07492637634277344,-0.1562047004699707,-0.00541369104757905,-1.1409862041473389,1777874420626543639
1777874420823175448,275.36651611328125,184.84033203125,81.75634765625,243.19189453125,85.92855072021484,74.61917114257812,0.0,0.0,0.0,0.0,0.0,0.0,0.0,0.0,0.6031133532524109,0.0,0.0,0.0,28.549999237060547,27.65999984741211,31.690000534057617,29.43000030517578,28.790000915527344,30.719999313354492,23.835702896118164,0.07814902067184448,-0.1561017781496048,-0.0058658914640545845,-1.1395621299743652,1777874420726618901
1777874420922872838,275.36651611328125,184.84033203125,81.75634765625,243.19189453125,85.92855072021484,74.61917114257812,0.0,0.0,0.0,0.0,0.0,0.0,0.0,0.0,0.5900022387504578,0.0,0.0,0.0,28.469999313354492,27.65999984741211,31.690000534057617,29.43000030517578,28.790000915527344,30.639999389648438,23.835702896118164,0.07895468175411224,-0.15628495812416077,-0.006352265365421772,-1.140051245689392,1777874420826687829
1777874421022582876,275.36651611328125,184.84033203125,81.75634765625,243.19189453125,85.92855072021484,74.61917114257812,0.0,0.0,0.0,0.0,0.0,0.0,0.0,0.0,0.6293357014656067,0.0,0.0,0.0,28.469999313354492,27.65999984741211,31.770000457763672,29.43000030517578,28.790000915527344,30.799999237060547,23.835702896118164,0.07250940054655075,-0.1562190055847168,-0.004063447006046772,-1.140613079071045,1777874420926773405
1777874421123295973,275.36651611328125,184.84033203125,81.75634765625,243.19189453125,85.92855072021484,74.61917114257812,0.0,0.0,0.0,0.0,0.0,0.0,0.0,0.0,0.6096689105033875,0.0,0.0,0.0,28.469999313354492,27.579999923706055,31.690000534057617,29.43000030517578,28.8700008392334,30.719999313354492,23.835702896118164,0.08056599646806717,-0.15651145577430725,-0.00682194996625185,-1.140116810798645,1777874421026833629
1777874421222994974,275.36651611328125,184.84033203125,81.75634765625,243.19189453125,85.92855072021484,74.61917114257812,0.0,0.0,0.0,0.0,0.0,0.0,0.0,0.0,0.5900022387504578,0.0,0.0,0.0,28.549999237060547,27.65999984741211,31.690000534057617,29.43000030517578,28.8700008392334,30.719999313354492,23.835702896118164,0.0757320374250412,-0.15699267387390137,-0.009908676147460938,-1.1396983861923218,1777874421126912594
1777874421322716197,275.36651611328125,184.84033203125,81.75634765625,243.19189453125,85.92855072021484,74.61917114257812,0.0,0.0,0.0,0.0,0.0,0.0,0.0,0.0,0.5768910646438599,0.0,0.0,0.0,28.549999237060547,27.739999771118164,31.770000457763672,29.43000030517578,28.709999084472656,30.719999313354492,23.835702896118164,0.0862056165933609,-0.15621820092201233,-0.006417830474674702,-1.140146255493164,1777874421226985504
1777874421422489069,275.36651611328125,184.84033203125,81.75634765625,243.19189453125,85.92855072021484,74.61917114257812,0.0,0.0,0.0,0.0,0.0,0.0,0.0,0.0,0.5900022387504578,0.0,0.0,0.0,28.549999237060547,27.65999984741211,31.690000534057617,29.43000030517578,28.8700008392334,30.719999313354492,23.835702896118164,0.07734335958957672,-0.1565917283296585,-0.00843485165387392,-1.141620397567749,1777874421327060506
1777874421523143647,275.36651611328125,184.84033203125,81.75634765625,243.19189453125,85.92855072021484,74.61917114257812,0.0,0.0,0.0,0.0,0.0,0.0,0.0,0.0,0.7735583782196045,0.0,0.0,0.0,28.549999237060547,27.579999923706055,31.690000534057617,29.510000228881836,28.8700008392334,30.719999313354492,23.835702896118164,0.07734335958957672,-0.15765944123268127,-0.006726980209350586,-1.1401641368865967,1777874421427136619
1777874421622849611,275.36651611328125,184.84033203125,81.75634765625,243.19189453125,85.92855072021484,74.61917114257812,0.0,0.0,0.0,0.0,0.0,0.0,0.0,0.0,0.6096689105033875,0.0,0.0,0.0,28.549999237060547,27.65999984741211,31.690000534057617,29.43000030517578,28.790000915527344,30.799999237060547,23.835702896118164,0.07976033538579941,-0.1568249762058258,-0.009467204101383686,-1.1393944025039673,1777874421527215436
1777874421722556464,275.36651611328125,184.84033203125,81.75634765625,243.19189453125,85.92855072021484,74.61917114257812,0.0,0.0,0.0,0.0,0.0,0.0,0.0,0.0,0.6096689105033875,0.0,0.0,0.0,28.469999313354492,27.65999984741211,31.690000534057617,29.43000030517578,28.790000915527344,30.719999313354492,23.835702896118164,0.08137166500091553,-0.1566791534423828,-0.010755062103271484,-1.1402407884597778,1777874421627293438
1777874421823264579,275.36651611328125,184.84033203125,81.75634765625,243.19189453125,85.92855072021484,74.61917114257812,0.0,0.0,0.0,0.0,0.0,0.0,0.0,0.0,0.6031133532524109,0.0,0.0,0.0,28.549999237060547,27.65999984741211,31.690000534057617,29.43000030517578,28.790000915527344,30.799999237060547,23.835702896118164,0.07814902067184448,-0.1565186083316803,-0.009514887817203999,-1.1402876377105713,1777874421727336162
1777874421922967765,275.36651611328125,184.84033203125,81.75634765625,243.19189453125,85.92855072021484,74.61917114257812,0.0,0.0,0.0,0.0,0.0,0.0,0.0,0.0,0.6227800846099854,0.0,0.0,0.0,28.549999237060547,27.65999984741211,31.690000534057617,29.350000381469727,28.8700008392334,30.799999237060547,23.835702896118164,0.08056599646806717,-0.15615344047546387,-0.007186730392277241,-1.139967441558838,1777874421827427720
1777874422022695229,275.36651611328125,184.84033203125,81.75634765625,243.19189453125,85.92855072021484,74.61917114257812,0.0,0.0,0.0,0.0,0.0,0.0,0.0,0.0,0.6096689105033875,0.0,0.0,0.0,28.549999237060547,27.65999984741211,31.690000534057617,29.510000228881836,28.8700008392334,30.719999313354492,23.835702896118164,0.07976033538579941,-0.1570804864168167,-0.008390744216740131,-1.1393415927886963,1777874421927520852
1777874422122439619,275.36651611328125,184.84033203125,81.75634765625,243.19189453125,85.92855072021484,74.61917114257812,0.0,0.0,0.0,0.0,0.0,0.0,0.0,0.0,0.6096689105033875,0.0,0.0,0.0,28.469999313354492,27.65999984741211,31.770000457763672,29.43000030517578,28.790000915527344,30.719999313354492,23.835702896118164,0.0757320374250412,-0.15663304924964905,-0.009244680404663086,-1.1405766010284424,1777874422027587798
1777874422223118197,275.36651611328125,184.84033203125,81.75634765625,243.19189453125,85.92855072021484,74.61917114257812,0.0,0.0,0.0,0.0,0.0,0.0,0.0,0.0,0.5703354477882385,0.0,0.0,0.0,28.549999237060547,27.65999984741211,31.770000457763672,29.350000381469727,28.790000915527344,30.719999313354492,23.835702896118164,0.07089807838201523,-0.15727002918720245,-0.0068326788023114204,-1.140489101409912,1777874422127670467
1777874422322856068,275.36651611328125,184.84033203125,81.75634765625,243.19189453125,85.92855072021484,74.61917114257812,0.0,0.0,0.0,0.0,0.0,0.0,0.0,0.0,0.6293357014656067,0.0,0.0,0.0,28.469999313354492,27.65999984741211,31.690000534057617,29.43000030517578,28.8700008392334,30.719999313354492,23.835702896118164,0.07170373946428299,-0.1565694808959961,-0.006479024887084961,-1.1408026218414307,1777874422227758247
1777874422422511866,275.36651611328125,184.84033203125,81.75634765625,243.19189453125,85.92855072021484,74.61917114257812,0.0,0.0,0.0,0.0,0.0,0.0,0.0,0.0,0.6358912587165833,0.0,0.0,0.0,28.549999237060547,27.65999984741211,31.770000457763672,29.510000228881836,28.790000915527344,30.719999313354492,23.835702896118164,0.07653769850730896,-0.1551906168460846,-0.009857416152954102,-1.1406008005142212,1777874422327836045
1777874422523234499,275.36651611328125,184.84033203125,81.75634765625,243.19189453125,85.92855072021484,74.61917114257812,0.0,0.0,0.0,0.0,0.0,0.0,0.0,0.0,0.6227800846099854,0.0,0.0,0.0,28.549999237060547,27.65999984741211,31.770000457763672,29.510000228881836,28.790000915527344,30.719999313354492,23.835702896118164,0.07814902067184448,-0.1567276269197464,-0.009059508331120014,-1.1408249139785767,1777874422427906418
1777874422622948167,275.36651611328125,184.84033203125,81.75634765625,243.19189453125,85.92855072021484,74.61917114257812,0.0,0.0,0.0,0.0,0.0,0.0,0.0,0.0,0.6096689105033875,0.0,0.0,0.0,28.549999237060547,27.65999984741211,31.770000457763672,29.270000457763672,28.709999084472656,30.719999313354492,23.835702896118164,0.08137165755033493,-0.15737970173358917,-0.006330410484224558,-1.1392266750335693,1777874422527981938
1777874422722659631,275.36651611328125,184.84033203125,81.75634765625,243.19189453125,85.92855072021484,74.61917114257812,0.0,0.0,0.0,0.0,0.0,0.0,0.0,0.0,0.6358912587165833,0.0,0.0,0.0,28.549999237060547,27.65999984741211,31.690000534057617,29.43000030517578,28.8700008392334,30.799999237060547,23.835702896118164,0.07653769105672836,-0.15579581260681152,-0.008040666580200195,-1.1403794288635254,1777874422628026533
1777874422823351635,275.36651611328125,184.84033203125,81.75634765625,243.19189453125,85.92855072021484,74.61917114257812,0.0,0.0,0.0,0.0,0.0,0.0,0.0,0.0,0.6031133532524109,0.0,0.0,0.0,28.549999237060547,27.65999984741211,31.690000534057617,29.510000228881836,28.8700008392334,30.799999237060547,23.835702896118164,0.07250940054655075,-0.15827734768390656,-0.006646712310612202,-1.1404306888580322,1777874422728120498
1777874422923088654,275.36651611328125,184.84033203125,81.75634765625,243.19189453125,85.92855072021484,74.61917114257812,0.0,0.0,0.0,0.0,0.0,0.0,0.0,0.0,0.6162245273590088,0.0,0.0,0.0,28.469999313354492,27.65999984741211,31.770000457763672,29.510000228881836,28.790000915527344,30.719999313354492,23.835702896118164,0.07976034283638,-0.15702605247497559,-0.005784829147160053,-1.1418381929397583,1777874422828173056
1777874423022829674,275.36651611328125,184.84033203125,81.75634765625,243.19189453125,85.92855072021484,74.61917114257812,0.0,0.0,0.0,0.0,0.0,0.0,0.0,0.0,0.5900022387504578,0.0,0.0,0.0,28.549999237060547,27.65999984741211,31.690000534057617,29.43000030517578,28.8700008392334,30.719999313354492,23.835702896118164,0.07492638379335403,-0.1590871810913086,-0.005151430610567331,-1.1395183801651,1777874422928228761
1777874423122475045,275.36651611328125,184.84033203125,81.75634765625,243.19189453125,85.92855072021484,74.61917114257812,0.0,0.0,0.0,0.0,0.0,0.0,0.0,0.0,0.6293357014656067,0.0,0.0,0.0,28.469999313354492,27.65999984741211,31.690000534057617,29.43000030517578,28.790000915527344,30.719999313354492,23.83660125732422,0.07976034283638,-0.1579781323671341,-0.007026195526123047,-1.141729712486267,1777874423028314912
1777874423223204975,275.36651611328125,184.84033203125,81.75634765625,243.19189453125,85.92855072021484,74.61917114257812,0.0,0.0,0.0,0.0,0.0,0.0,0.0,0.0,0.5900022387504578,0.0,0.0,0.0,28.469999313354492,27.65999984741211,31.770000457763672,29.510000228881836,28.790000915527344,30.719999313354492,23.83660125732422,0.07492637634277344,-0.15792687237262726,-0.007026195526123047,-1.1406786441802979,1777874423128370210
1777874423322901921,275.36651611328125,184.84033203125,81.75634765625,243.19189453125,85.92855072021484,74.61917114257812,0.0,0.0,0.0,0.0,0.0,0.0,0.0,0.0,0.5834466218948364,0.0,0.0,0.0,28.549999237060547,27.579999923706055,31.690000534057617,29.43000030517578,28.8700008392334,30.799999237060547,23.83660125732422,0.07976034283638,-0.1583719253540039,-0.0057566165924072266,-1.1412922143936157,1777874423228465694
1777874423422604181,275.36651611328125,184.84033203125,81.75634765625,243.19189453125,85.92855072021484,74.61917114257812,0.0,0.0,0.0,0.0,0.0,0.0,0.0,0.0,0.5834466218948364,0.0,0.0,0.0,28.549999237060547,27.65999984741211,31.690000534057617,29.43000030517578,28.8700008392334,30.719999313354492,23.83660125732422,0.07412071526050568,-0.1571643352508545,-0.00574946403503418,-1.1401057243347168,1777874423328538936
1777874423523334074,275.36651611328125,184.84033203125,81.75634765625,243.19189453125,85.92855072021484,74.61917114257812,0.0,0.0,0.0,0.0,0.0,0.0,0.0,0.0,0.5703354477882385,0.0,0.0,0.0,28.549999237060547,27.65999984741211,31.770000457763672,29.510000228881836,28.8700008392334,30.719999313354492,23.83660125732422,0.0757320374250412,-0.15589793026447296,-0.0061651067808270454,-1.1419192552566528,1777874423428608309
1777874423623032760,275.36651611328125,184.84033203125,81.75634765625,243.19189453125,85.92855072021484,74.61917114257812,0.0,0.0,0.0,0.0,0.0,0.0,0.0,0.0,0.6293357014656067,0.0,0.0,0.0,28.469999313354492,27.65999984741211,31.690000534057617,29.43000030517578,28.8700008392334,30.719999313354492,23.83660125732422,0.08056599646806717,-0.1559126377105713,-0.007596810348331928,-1.1403576135635376,1777874423528681903
1777874423722750817,275.36651611328125,184.84033203125,81.75634765625,243.19189453125,85.92855072021484,74.61917114257812,0.0,0.0,0.0,0.0,0.0,0.0,0.0,0.0,0.6031133532524109,0.0,0.0,0.0,28.549999237060547,27.65999984741211,31.690000534057617,29.43000030517578,28.8700008392334,30.719999313354492,23.83660125732422,0.09345655888319016,-0.15551844239234924,-0.00577092170715332,-1.140211820602417,1777874423628732350
1777874423822461836,275.36651611328125,184.84033203125,81.75634765625,243.19189453125,85.92855072021484,74.61917114257812,0.0,0.0,0.0,0.0,0.0,0.0,0.0,0.0,0.6227800846099854,0.0,0.0,0.0,28.469999313354492,27.579999923706055,31.770000457763672,29.59000015258789,28.790000915527344,30.719999313354492,23.83660125732422,0.08137165755033493,-0.1561172753572464,-0.006128549575805664,-1.1407227516174316,1777874423728844741
1777874423923157507,275.36651611328125,184.84033203125,81.75634765625,243.19189453125,85.92855072021484,74.61917114257812,0.0,0.0,0.0,0.0,0.0,0.0,0.0,0.0,0.6031133532524109,0.0,0.0,0.0,28.469999313354492,27.65999984741211,31.770000457763672,29.43000030517578,28.8700008392334,30.719999313354492,23.83660125732422,0.07895467430353165,-0.15665729343891144,-0.005260308273136616,-1.1388102769851685,1777874423828929206
1777874424022866785,275.36651611328125,184.84033203125,81.75634765625,243.19189453125,85.92855072021484,74.61917114257812,0.0,0.0,0.0,0.0,0.0,0.0,0.0,0.0,0.6686691641807556,0.0,0.0,0.0,28.469999313354492,27.65999984741211,31.770000457763672,29.43000030517578,28.790000915527344,30.799999237060547,23.83660125732422,0.07653769105672836,-0.1565893441438675,-0.006941954139620066,-1.1399272680282593,1777874423929024949
1777874424122592398,275.36651611328125,184.84033203125,81.75634765625,243.19189453125,85.92855072021484,74.61917114257812,0.0,0.0,0.0,0.0,0.0,0.0,0.0,0.0,0.5965577363967896,0.0,0.0,0.0,28.469999313354492,27.65999984741211,31.770000457763672,29.43000030517578,28.8700008392334,30.639999389648438,23.83660125732422,0.08056599646806717,-0.1568690836429596,-0.007880130782723427,-1.1401680707931519,1777874424029094155
1777874424223294827,275.36651611328125,184.84033203125,81.75634765625,243.19189453125,85.92855072021484,74.61917114257812,0.0,0.0,0.0,0.0,0.0,0.0,0.0,0.0,0.5900022387504578,0.0,0.0,0.0,28.469999313354492,27.739999771118164,31.770000457763672,29.43000030517578,28.790000915527344,30.719999313354492,23.83660125732422,0.07653769850730896,-0.156700998544693,-0.005960861686617136,-1.1387741565704346,1777874424129167249
1777874424323005921,275.36651611328125,184.84033203125,81.75634765625,243.19189453125,85.92855072021484,74.61917114257812,0.0,0.0,0.0,0.0,0.0,0.0,0.0,0.0,0.6031133532524109,0.0,0.0,0.0,28.469999313354492,27.65999984741211,31.850000381469727,29.43000030517578,28.790000915527344,30.799999237060547,23.83660125732422,0.07492637634277344,-0.15641608834266663,-0.006989637855440378,-1.1403170824050903,1777874424229254789
1777874424422710293,275.36651611328125,184.84033203125,81.75634765625,243.19189453125,85.92855072021484,74.61917114257812,0.0,0.0,0.0,0.0,0.0,0.0,0.0,0.0,0.6162245273590088,0.0,0.0,0.0,28.549999237060547,27.65999984741211,31.690000534057617,29.43000030517578,28.790000915527344,30.719999313354492,23.83660125732422,0.07492637634277344,-0.15765944123268127,-0.010486045852303505,-1.1408904790878296,1777874424329336994
1777874424522466757,275.36651611328125,184.84033203125,81.75634765625,243.19189453125,85.92855072021484,74.61917114257812,0.0,0.0,0.0,0.0,0.0,0.0,0.0,0.0,0.6227800846099854,0.0,0.0,0.0,28.469999313354492,27.579999923706055,31.690000534057617,29.43000030517578,28.8700008392334,30.719999313354492,23.83660125732422,0.07331505417823792,-0.15720446407794952,-0.004837115295231342,-1.139504075050354,1777874424429394830
1777874424622753574,275.36651611328125,184.84033203125,81.75634765625,243.19189453125,85.92855072021484,74.61917114257812,0.0,0.0,0.0,0.0,0.0,0.0,0.0,0.0,0.5834466218948364,0.0,0.0,0.0,28.549999237060547,27.65999984741211,31.770000457763672,29.43000030517578,28.8700008392334,30.719999313354492,23.83660125732422,0.07412072271108627,-0.1563727855682373,-0.005340576171875,-1.141218662261963,1777874424529476610
1777874424722849687,275.36651611328125,184.84033203125,81.75634765625,243.19189453125,85.92855072021484,74.61917114257812,0.0,0.0,0.0,0.0,0.0,0.0,0.0,0.0,0.6162245273590088,0.0,0.0,0.0,28.549999237060547,27.65999984741211,31.690000534057617,29.510000228881836,28.8700008392334,30.719999313354492,23.83660125732422,0.07895467430353165,-0.15654762089252472,-0.0045939283445477486,-1.1402407884597778,1777874424629551149
1777874424822529818,275.36651611328125,184.84033203125,81.75634765625,243.19189453125,85.92855072021484,74.61917114257812,0.0,0.0,0.0,0.0,0.0,0.0,0.0,0.0,0.6227800846099854,0.0,0.0,0.0,28.469999313354492,27.739999771118164,31.690000534057617,29.350000381469727,28.8700008392334,30.719999313354492,23.83660125732422,0.07492637634277344,-0.1558033525943756,-0.00865936279296875,-1.1412770748138428,1777874424729635947
1777874424923257989,275.36651611328125,184.84033203125,81.75634765625,243.19189453125,85.92855072021484,74.61917114257812,0.0,0.0,0.0,0.0,0.0,0.0,0.0,0.0,0.6096689105033875,0.0,0.0,0.0,28.549999237060547,27.65999984741211,31.770000457763672,29.510000228881836,28.790000915527344,30.719999313354492,23.83660125732422,0.07412071526050568,-0.15632152557373047,-0.008207956328988075,-1.1414599418640137,1777874424829707264
1777874425022960027,275.36651611328125,184.84033203125,81.75634765625,243.19189453125,85.92855072021484,74.61917114257812,0.0,0.0,0.0,0.0,0.0,0.0,0.0,0.0,0.6424468159675598,0.0,0.0,0.0,28.469999313354492,27.65999984741211,31.770000457763672,29.43000030517578,28.8700008392334,30.719999313354492,23.83660125732422,0.07976033538579941,-0.1558760702610016,-0.005915562156587839,-1.1409342288970947,1777874424929770433
1777874425123211177,275.36651611328125,184.84033203125,81.75634765625,243.19189453125,85.92855072021484,74.61917114257812,0.0,0.0,0.0,0.0,0.0,0.0,0.0,0.0,0.6162245273590088,0.0,0.0,0.0,28.549999237060547,27.579999923706055,31.770000457763672,29.350000381469727,28.790000915527344,30.719999313354492,23.83660125732422,0.07653769850730896,-0.15422263741493225,-0.006313323974609375,-1.1415624618530273,1777874425029856583
1777874425223349383,275.36651611328125,184.84033203125,81.75634765625,243.19189453125,85.92855072021484,74.61917114257812,0.0,0.0,0.0,0.0,0.0,0.0,0.0,0.0,0.0,0.0,0.0,0.0,0.0,0.0,0.0,0.0,0.0,0.0,23.83660125732422,0.0,0.0,0.0,0.0,1777874425029856583
1777874425323072107,275.36651611328125,184.84033203125,81.75634765625,243.19189453125,85.92855072021484,74.61917114257812,0.0,0.0,0.0,0.0,0.0,0.0,0.0,0.0,0.5900022387504578,0.0,0.0,0.0,28.549999237060547,27.65999984741211,31.690000534057617,29.510000228881836,28.790000915527344,30.799999237060547,23.83660125732422,0.08056599646806717,-0.15613079071044922,-0.007456938270479441,-1.1391973495483398,1777874425230000735
1777874425422792960,275.36651611328125,184.84033203125,81.75634765625,243.19189453125,85.92855072021484,74.61917114257812,0.0,0.0,0.0,0.0,0.0,0.0,0.0,0.0,0.6293357014656067,0.0,0.0,0.0,28.469999313354492,27.65999984741211,31.690000534057617,29.43000030517578,28.8700008392334,30.719999313354492,23.83660125732422,0.07653769850730896,-0.1578156054019928,-0.0041584172286093235,-1.1376622915267944,1777874425330066349
1777874425522484739,275.36651611328125,184.84033203125,81.75634765625,243.19189453125,85.92855072021484,74.61917114257812,0.0,0.0,0.0,0.0,0.0,0.0,0.0,0.0,0.6031133532524109,0.0,0.0,0.0,28.469999313354492,27.579999923706055,31.770000457763672,29.510000228881836,28.790000915527344,30.719999313354492,23.83660125732422,0.07492637634277344,-0.15703678131103516,-0.008347034454345703,-1.1402777433395386,1777874425430128962
1777874425623204854,275.36651611328125,184.84033203125,81.75634765625,243.19189453125,85.92855072021484,74.61917114257812,0.0,0.0,0.0,0.0,0.0,0.0,0.0,0.0,0.6031133532524109,0.0,0.0,0.0,28.469999313354492,27.65999984741211,31.690000534057617,29.510000228881836,28.8700008392334,30.719999313354492,23.83660125732422,0.07492637634277344,-0.15560626983642578,-0.010149875655770302,-1.1409199237823486,1777874425530199742
1777874425722907281,275.36651611328125,184.84033203125,81.75634765625,243.19189453125,85.92855072021484,74.61917114257812,0.0,0.0,0.0,0.0,0.0,0.0,0.0,0.0,0.6096689105033875,0.0,0.0,0.0,28.549999237060547,27.65999984741211,31.610000610351562,29.510000228881836,28.790000915527344,30.719999313354492,23.83660125732422,0.08137165755033493,-0.15646576881408691,-0.009925762191414833,-1.1401784420013428,1777874425630259947
1777874425822613467,275.36651611328125,184.84033203125,81.75634765625,243.19189453125,85.92855072021484,74.61917114257812,0.0,0.0,0.0,0.0,0.0,0.0,0.0,0.0,0.6227800846099854,0.0,0.0,0.0,28.549999237060547,27.65999984741211,31.690000534057617,29.43000030517578,28.709999084472656,30.639999389648438,23.83660125732422,0.0757320374250412,-0.15805840492248535,-0.009423494338989258,-1.1395621299743652,1777874425730323820
1777874425923328322,275.36651611328125,184.84033203125,81.75634765625,243.19189453125,85.92855072021484,74.61917114257812,0.0,0.0,0.0,0.0,0.0,0.0,0.0,0.0,0.6096689105033875,0.0,0.0,0.0,28.549999237060547,27.65999984741211,31.690000534057617,29.43000030517578,28.8700008392334,30.719999313354492,23.83660125732422,0.07814902067184448,-0.15741188824176788,-0.008229811675846577,-1.140564203262329,1777874425830386581
1777874426023049194,275.36651611328125,184.84033203125,81.75634765625,243.19189453125,85.92855072021484,74.61917114257812,0.0,0.0,0.0,0.0,0.0,0.0,0.0,0.0,0.6031133532524109,0.0,0.0,0.0,28.549999237060547,27.65999984741211,31.770000457763672,29.510000228881836,28.790000915527344,30.719999313354492,23.83660125732422,0.07895468175411224,-0.1570439338684082,-0.007043679244816303,-1.140613079071045,1777874425930475731
1777874426122762788,275.36651611328125,184.84033203125,81.75634765625,243.19189453125,85.92855072021484,74.61917114257812,0.0,0.0,0.0,0.0,0.0,0.0,0.0,0.0,0.6162245273590088,0.0,0.0,0.0,28.549999237060547,27.65999984741211,31.770000457763672,29.43000030517578,28.790000915527344,30.799999237060547,23.83660125732422,0.0757320374250412,-0.1571897566318512,-0.007909536361694336,-1.1399201154708862,1777874426030518048
1777874426222553789,275.36651611328125,184.84033203125,81.75634765625,243.19189453125,85.92855072021484,74.61917114257812,0.0,0.0,0.0,0.0,0.0,0.0,0.0,0.0,0.6096689105033875,0.0,0.0,0.0,28.469999313354492,27.739999771118164,31.690000534057617,29.350000381469727,28.790000915527344,30.719999313354492,23.83660125732422,0.07895467430353165,-0.15582521259784698,-0.010923147201538086,-1.1411312818527222,1777874426130585328
1777874426323174052,275.36651611328125,184.84033203125,81.75634765625,243.19189453125,85.92855072021484,74.61917114257812,0.0,0.0,0.0,0.0,0.0,0.0,0.0,0.0,0.6490023732185364,0.0,0.0,0.0,28.469999313354492,27.579999923706055,31.770000457763672,29.43000030517578,28.8700008392334,30.639999389648438,23.83660125732422,0.07170373946428299,-0.15693464875221252,-0.0072232880629599094,-1.139569640159607,1777874426230675719
1777874426422879905,275.36651611328125,184.84033203125,81.75634765625,243.19189453125,85.92855072021484,74.61917114257812,0.0,0.0,0.0,0.0,0.0,0.0,0.0,0.0,0.6031133532524109,0.0,0.0,0.0,28.549999237060547,27.579999923706055,31.690000534057617,29.43000030517578,28.790000915527344,30.719999313354492,23.83660125732422,0.08137165755033493,-0.15678086876869202,-0.007354815490543842,-1.1402336359024048,1777874426330770258
1777874426522588813,275.36651611328125,184.84033203125,81.75634765625,243.19189453125,85.92855072021484,74.61917114257812,0.0,0.0,0.0,0.0,0.0,0.0,0.0,0.0,0.5834466218948364,0.0,0.0,0.0,28.469999313354492,27.65999984741211,31.690000534057617,29.510000228881836,28.790000915527344,30.639999389648438,23.83660125732422,0.07250940054655075,-0.15737254917621613,-0.009755690582096577,-1.1407442092895508,1777874426430848520
1777874426623284706,275.36651611328125,184.84033203125,81.75634765625,243.19189453125,85.92855072021484,74.61917114257812,0.0,0.0,0.0,0.0,0.0,0.0,0.0,0.0,0.6358912587165833,0.0,0.0,0.0,28.469999313354492,27.65999984741211,31.770000457763672,29.43000030517578,28.790000915527344,30.639999389648438,23.83660125732422,0.08056599646806717,-0.15701492130756378,-0.005989869125187397,-1.1398077011108398,1777874426530919725
1777874426722997059,275.36651611328125,184.84033203125,81.75634765625,243.19189453125,85.92855072021484,74.61917114257812,0.0,0.0,0.0,0.0,0.0,0.0,0.0,0.0,0.5834466218948364,0.0,0.0,0.0,28.469999313354492,27.65999984741211,31.690000534057617,29.43000030517578,28.8700008392334,30.799999237060547,23.83660125732422,0.07653769850730896,-0.15603621304035187,-0.007259845733642578,-1.1401314735412598,1777874426630975357
1777874426822710282,275.36651611328125,184.84033203125,81.75634765625,243.19189453125,85.92855072021484,74.61917114257812,0.0,0.0,0.0,0.0,0.0,0.0,0.0,0.0,0.6162245273590088,0.0,0.0,0.0,28.469999313354492,27.65999984741211,31.690000534057617,29.43000030517578,28.790000915527344,30.719999313354492,23.83660125732422,0.07814901322126389,-0.15639463067054749,-0.007982650771737099,-1.1404013633728027,1777874426731057507
1777874426922416265,275.36651611328125,184.84033203125,81.75634765625,243.19189453125,85.92855072021484,74.61917114257812,0.0,0.0,0.0,0.0,0.0,0.0,0.0,0.0,0.5965577363967896,0.0,0.0,0.0,28.549999237060547,27.65999984741211,31.850000381469727,29.43000030517578,28.790000915527344,30.719999313354492,23.83660125732422,0.07653769850730896,-0.15645304322242737,-0.0059171514585614204,-1.1407811641693115,1777874426831121083
1777874427023132435,275.36651611328125,184.84033203125,81.75634765625,243.19189453125,85.92855072021484,74.61917114257812,0.0,0.0,0.0,0.0,0.0,0.0,0.0,0.0,0.6031133532524109,0.0,0.0,0.0,28.549999237060547,27.739999771118164,31.610000610351562,29.350000381469727,28.8700008392334,30.799999237060547,23.83660125732422,0.08056599646806717,-0.15592733025550842,-0.007048050407320261,-1.1410510540008545,1777874426931134400
1777874427122840251,275.36651611328125,184.84033203125,81.75634765625,243.19189453125,85.92855072021484,74.61917114257812,0.0,0.0,0.0,0.0,0.0,0.0,0.0,0.0,0.6227800846099854,0.0,0.0,0.0,28.549999237060547,27.65999984741211,31.770000457763672,29.43000030517578,28.8700008392334,30.719999313354492,23.83660125732422,0.07653769850730896,-0.15649636089801788,-0.009522040374577045,-1.1397782564163208,1777874427031272884
1777874427222542234,275.36651611328125,184.84033203125,81.75634765625,243.19189453125,85.92855072021484,74.61917114257812,0.0,0.0,0.0,0.0,0.0,0.0,0.0,0.0,0.6096689105033875,0.0,0.0,0.0,28.469999313354492,27.579999923706055,31.690000534057617,29.43000030517578,28.8700008392334,30.639999389648438,23.83660125732422,0.07895467430353165,-0.15635767579078674,-0.005960861686617136,-1.1387379169464111,1777874427131335682
1777874427323260404,275.36651611328125,184.84033203125,81.75634765625,243.19189453125,85.92855072021484,74.61917114257812,0.0,0.0,0.0,0.0,0.0,0.0,0.0,0.0,0.6096689105033875,0.0,0.0,0.0,28.549999237060547,27.65999984741211,31.690000534057617,29.43000030517578,28.790000915527344,30.639999389648438,23.83660125732422,0.08056599646806717,-0.15627026557922363,-0.0074640908278524876,-1.1407172679901123,1777874427231406481
1777874427422961609,275.36651611328125,184.84033203125,81.75634765625,243.19189453125,85.92855072021484,74.61917114257812,0.0,0.0,0.0,0.0,0.0,0.0,0.0,0.0,0.6358912587165833,0.0,0.0,0.0,28.469999313354492,27.65999984741211,31.770000457763672,29.350000381469727,28.790000915527344,30.799999237060547,23.83660125732422,0.0757320374250412,-0.15694577991962433,-0.008521080017089844,-1.140817403793335,1777874427331481094
1777874427522670369,275.36651611328125,184.84033203125,81.75634765625,243.19189453125,85.92855072021484,74.61917114257812,0.0,0.0,0.0,0.0,0.0,0.0,0.0,0.0,0.5965577363967896,0.0,0.0,0.0,28.469999313354492,27.579999923706055,31.690000534057617,29.43000030517578,28.790000915527344,30.719999313354492,23.83660125732422,0.07814901322126389,-0.15609541535377502,-0.010922749526798725,-1.1420948505401611,1777874427431547800
1777874427623387151,275.36651611328125,184.84033203125,81.75634765625,243.19189453125,85.92855072021484,74.61917114257812,0.0,0.0,0.0,0.0,0.0,0.0,0.0,0.0,0.6227800846099854,0.0,0.0,0.0,28.549999237060547,27.579999923706055,31.770000457763672,29.350000381469727,28.790000915527344,30.719999313354492,23.83660125732422,0.07895467430353165,-0.1567375659942627,-0.008499224670231342,-1.1394528150558472,1777874427531597839
1777874427723078967,275.36651611328125,184.84033203125,81.75634765625,243.19189453125,85.92855072021484,74.61917114257812,0.0,0.0,0.0,0.0,0.0,0.0,0.0,0.0,0.6293357014656067,0.0,0.0,0.0,28.549999237060547,27.65999984741211,31.770000457763672,29.510000228881836,28.8700008392334,30.799999237060547,23.83660125732422,0.07412071526050568,-0.15878081321716309,-0.011477867141366005,-1.1408467292785645,1777874427631664693
1777874427822859949,275.36651611328125,184.84033203125,81.75634765625,243.19189453125,85.92855072021484,74.61917114257812,0.0,0.0,0.0,0.0,0.0,0.0,0.0,0.0,0.6096689105033875,0.0,0.0,0.0,28.549999237060547,27.65999984741211,31.770000457763672,29.43000030517578,28.790000915527344,30.719999313354492,23.83660125732422,0.07331505417823792,-0.1564236432313919,-0.006865660194307566,-1.1403067111968994,1777874427731754880
1777874427922525321,275.36651611328125,184.84033203125,81.75634765625,243.19189453125,85.92855072021484,74.61917114257812,0.0,0.0,0.0,0.0,0.0,0.0,0.0,0.0,0.5900022387504578,0.0,0.0,0.0,28.549999237060547,27.65999984741211,31.770000457763672,29.43000030517578,28.8700008392334,30.719999313354492,23.83660125732422,0.07895468175411224,-0.15811681747436523,-0.008675654418766499,-1.1396205425262451,1777874427831813752
1777874428023211028,275.36651611328125,184.84033203125,81.75634765625,243.19189453125,85.92855072021484,74.61917114257812,0.0,0.0,0.0,0.0,0.0,0.0,0.0,0.0,0.6096689105033875,0.0,0.0,0.0,28.549999237060547,27.65999984741211,31.690000534057617,29.43000030517578,28.8700008392334,30.639999389648438,23.83660125732422,0.07653769850730896,-0.15721917152404785,-0.004545052535831928,-1.139814853668213,1777874427931795995
1777874428122923196,275.36651611328125,184.84033203125,81.75634765625,243.19189453125,85.92855072021484,74.61917114257812,0.0,0.0,0.0,0.0,0.0,0.0,0.0,0.0,0.6096689105033875,0.0,0.0,0.0,28.469999313354492,27.65999984741211,31.770000457763672,29.43000030517578,28.790000915527344,30.639999389648438,23.835390090942383,0.0757320374250412,-0.15845973789691925,-0.010747909545898438,-1.1398175954818726,1777874428031937849
1777874428222631642,275.36651611328125,184.84033203125,81.75634765625,243.19189453125,85.92855072021484,74.61917114257812,0.0,0.0,0.0,0.0,0.0,0.0,0.0,0.0,0.6293357014656067,0.0,0.0,0.0,28.469999313354492,27.65999984741211,31.610000610351562,29.43000030517578,28.790000915527344,30.639999389648438,23.835390090942383,0.07653769850730896,-0.15631437301635742,-0.0073858099058270454,-1.139467477798462,1777874428132000184
1777874428323313942,275.36651611328125,184.84033203125,81.75634765625,243.19189453125,85.92855072021484,74.61917114257812,0.0,0.0,0.0,0.0,0.0,0.0,0.0,0.0,0.6227800846099854,0.0,0.0,0.0,28.549999237060547,27.579999923706055,31.770000457763672,29.43000030517578,28.790000915527344,30.719999313354492,23.835390090942383,0.07653769850730896,-0.15632271766662598,-0.008289416320621967,-1.1407796144485474,1777874428232012297
1777874428423026998,275.36651611328125,184.84033203125,81.75634765625,243.19189453125,85.92855072021484,74.61917114257812,0.0,0.0,0.0,0.0,0.0,0.0,0.0,0.0,0.6686691641807556,0.0,0.0,0.0,28.469999313354492,27.65999984741211,31.770000457763672,29.510000228881836,28.709999084472656,30.639999389648438,23.835390090942383,0.07653769850730896,-0.1566934585571289,-0.006836255080997944,-1.1394015550613403,1777874428332057466
1777874428522757055,275.36651611328125,184.84033203125,81.75634765625,243.19189453125,85.92855072021484,74.61917114257812,0.0,0.0,0.0,0.0,0.0,0.0,0.0,0.0,0.6096689105033875,0.0,0.0,0.0,28.549999237060547,27.65999984741211,31.690000534057617,29.43000030517578,28.790000915527344,30.719999313354492,23.835390090942383,0.07814901322126389,-0.15832820534706116,-0.006420612335205078,-1.1389267444610596,1777874428432132727
1777874428622446963,275.36651611328125,184.84033203125,81.75634765625,243.19189453125,85.92855072021484,74.61917114257812,0.0,0.0,0.0,0.0,0.0,0.0,0.0,0.0,0.6096689105033875,0.0,0.0,0.0,28.469999313354492,27.65999984741211,31.770000457763672,29.510000228881836,28.709999084472656,30.719999313354492,23.835390090942383,0.08137166500091553,-0.15581806004047394,-0.007048050407320261,-1.1414451599121094,1777874428532193600
